subject	session	condition	trial	prime	target	target_category	response_time	accuracy
s04_2018_rd	3	Cz	1	sociale	stazza	quantity	934.0	1	
s04_2018_rd	3	Cz	2	quantità	frazione	quantity	1019.4000000000001	1	
s04_2018_rd	3	Cz	3	sociale	immensità	quantity	1077.4	1	
s04_2018_rd	3	Cz	4	sociale	ingrandimento	quantity	708.8000000000002	1	
s04_2018_rd	3	Cz	5	sociale	infamia	social	850.9000000000001	1	
s04_2018_rd	3	Cz	6	sociale	catasta	quantity	691.8000000000002	1	
s04_2018_rd	3	Cz	7	quantità	carenza	quantity	907.2000000000003	1	
s04_2018_rd	3	Cz	8	sociale	cumulo	quantity	1153.8000000000002	1	
s04_2018_rd	3	Cz	9	sociale	diminuzione	quantity	862.8000000000002	1	
s04_2018_rd	3	Cz	10	quantità	penuria	quantity	598.8000000000002	1	
s04_2018_rd	3	Cz	11	quantità	alleanza	social	625.5999999999999	1	
s04_2018_rd	3	Cz	12	quantità	cospirazione	social	747.5999999999999	1	
s04_2018_rd	3	Cz	13	quantità	grandezza	quantity	872.3000000000002	1	
s04_2018_rd	3	Cz	14	quantità	servitù	social	1024.5	1	
s04_2018_rd	3	Cz	15	sociale	enormità	quantity	738.5	1	
s04_2018_rd	3	Cz	16	quantità	lusinga	social	583.9000000000001	-1	
s04_2018_rd	3	Cz	17	quantità	addizione	quantity	571.5	1	
s04_2018_rd	3	Cz	18	sociale	patto	social	1167.5	1	
s04_2018_rd	3	Cz	19	sociale	dilatazione	quantity	627.5	1	
s04_2018_rd	3	Cz	20	sociale	grossezza	quantity	637.0999999999999	1	
s04_2018_rd	3	Cz	21	quantità	tradizione	social	774.5	1	
s04_2018_rd	3	Cz	22	quantità	catasta	quantity	930.5999999999999	1	
s04_2018_rd	3	Cz	23	sociale	rivalità	social	632.0	1	
s04_2018_rd	3	Cz	24	sociale	carico	quantity	681.4000000000001	1	
s04_2018_rd	3	Cz	25	sociale	competizione	social	712.9000000000001	1	
s04_2018_rd	3	Cz	26	sociale	frazione	quantity	598.9000000000001	1	
s04_2018_rd	3	Cz	27	sociale	lusinga	social	569.7000000000003	1	
s04_2018_rd	3	Cz	28	quantità	socievolezza	social	637.7000000000003	1	
s04_2018_rd	3	Cz	29	quantità	diffamazione	social	703.2000000000003	1	
s04_2018_rd	3	Cz	30	quantità	incremento	quantity	605.9000000000001	1	
s04_2018_rd	3	Cz	31	quantità	dispetto	social	1040.6	1	
s04_2018_rd	3	Cz	32	sociale	addizione	quantity	562.2000000000003	1	
s04_2018_rd	3	Cz	33	quantità	grossezza	quantity	630.0999999999999	1	
s04_2018_rd	3	Cz	34	sociale	sudditanza	social	687.5	1	
s04_2018_rd	3	Cz	35	quantità	cumulo	quantity	631.0999999999999	1	
s04_2018_rd	3	Cz	36	sociale	grandezza	quantity	1088.5	1	
s04_2018_rd	3	Cz	37	quantità	allargamento	quantity	679.9000000000001	1	
s04_2018_rd	3	Cz	38	sociale	incremento	quantity	879.4000000000001	1	
s04_2018_rd	3	Cz	39	quantità	enormità	quantity	590.8000000000002	1	
s04_2018_rd	3	Cz	40	sociale	relazione	social	674.2000000000003	1	
s04_2018_rd	3	Cz	41	sociale	notorietà	social	1490.3000000000002	1	
s04_2018_rd	3	Cz	42	quantità	sudditanza	social	1465.7000000000003	1	
s04_2018_rd	3	Cz	43	sociale	riduzione	quantity	889.8000000000002	1	
s04_2018_rd	3	Cz	44	quantità	competizione	social	969.0999999999999	1	
s04_2018_rd	3	Cz	45	quantità	nomea	social	845.4000000000001	1	
s04_2018_rd	3	Cz	46	quantità	notorietà	social	1806.0000000000005	1	
s04_2018_rd	3	Cz	47	quantità	offesa	social	688.9000000000001	1	
s04_2018_rd	3	Cz	48	sociale	carenza	quantity	784.2000000000003	1	
s04_2018_rd	3	Cz	49	quantità	accumulo	quantity	891.5999999999999	1	
s04_2018_rd	3	Cz	50	sociale	plebe	social	1579.2000000000003	1	
s04_2018_rd	3	Cz	51	sociale	quintale	quantity	734.5999999999999	1	
s04_2018_rd	3	Cz	52	sociale	accrescimento	quantity	764.0999999999999	1	
s04_2018_rd	3	Cz	53	sociale	tradizione	social	1488.0	1	
s04_2018_rd	3	Cz	54	sociale	porzione	quantity	695.5999999999999	1	
s04_2018_rd	3	Cz	55	quantità	estensione	quantity	966.4000000000001	1	
s04_2018_rd	3	Cz	56	quantità	quintale	quantity	658.5	1	
s04_2018_rd	3	Cz	57	quantità	emarginazione	social	891.0999999999999	1	
s04_2018_rd	3	Cz	58	sociale	mole	quantity	634.5	1	
s04_2018_rd	3	Cz	59	quantità	etnia	social	707.9000000000001	1	
s04_2018_rd	3	Cz	60	sociale	emarginazione	social	1282.7000000000003	1	
s04_2018_rd	3	Cz	61	sociale	sfacciataggine	social	906.0999999999999	1	
s04_2018_rd	3	Cz	62	sociale	altruismo	social	729.0	1	
s04_2018_rd	3	Cz	63	sociale	estensione	quantity	766.4000000000001	1	
s04_2018_rd	3	Cz	64	sociale	nomea	social	570.5	1	
s04_2018_rd	3	Cz	65	sociale	dissenso	social	1406.6	1	
s04_2018_rd	3	Cz	66	sociale	massa	quantity	489.2000000000003	1	
s04_2018_rd	3	Cz	67	quantità	accrescimento	quantity	896.8000000000002	1	
s04_2018_rd	3	Cz	68	sociale	venerazione	social	631.5999999999999	1	
s04_2018_rd	3	Cz	69	sociale	gentilezza	social	761.0	1	
s04_2018_rd	3	Cz	70	sociale	accumulo	quantity	837.0999999999999	1	
s04_2018_rd	3	Cz	71	quantità	diminuzione	quantity	646.5	1	
s04_2018_rd	3	Cz	72	quantità	carico	quantity	647.0999999999999	1	
s04_2018_rd	3	Cz	73	quantità	scherzo	social	591.9000000000001	1	
s04_2018_rd	3	Cz	74	sociale	espansione	quantity	899.4000000000001	1	
s04_2018_rd	3	Cz	75	sociale	tonnellata	quantity	626.2000000000003	1	
s04_2018_rd	3	Cz	76	quantità	dissenso	social	723.5	1	
s04_2018_rd	3	Cz	77	sociale	penuria	quantity	561.7000000000003	1	
s04_2018_rd	3	Cz	78	quantità	gentilezza	social	773.8000000000002	1	
s04_2018_rd	3	Cz	79	sociale	decremento	quantity	777.9000000000001	1	
s04_2018_rd	3	Cz	80	quantità	porzione	quantity	829.2000000000003	1	
s04_2018_rd	3	Cz	81	quantità	infamia	social	598.7000000000003	1	
s04_2018_rd	3	Cz	82	quantità	venerazione	social	921.5	1	
s04_2018_rd	3	Cz	83	quantità	complotto	social	975.4000000000001	1	
s04_2018_rd	3	Cz	84	sociale	servitù	social	995.7000000000003	1	
s04_2018_rd	3	Cz	85	sociale	allargamento	quantity	902.4000000000001	1	
s04_2018_rd	3	Cz	86	sociale	complotto	social	573.2000000000003	1	
s04_2018_rd	3	Cz	87	sociale	alleanza	social	1121.3000000000002	1	
s04_2018_rd	3	Cz	88	quantità	dilatazione	quantity	1159.4	1	
s04_2018_rd	3	Cz	89	quantità	espansione	quantity	1027.4	1	
s04_2018_rd	3	Cz	90	quantità	altruismo	social	1292.9	1	
s04_2018_rd	3	Cz	91	quantità	fascino	social	1571.7000000000003	1	
s04_2018_rd	3	Cz	92	quantità	immensità	quantity	623.5999999999999	1	
s04_2018_rd	3	Cz	93	quantità	massa	quantity	561.9000000000001	1	
s04_2018_rd	3	Cz	94	quantità	relazione	social	654.0	1	
s04_2018_rd	3	Cz	95	quantità	rivalità	social	1854.7000000000003	1	
s04_2018_rd	3	Cz	96	sociale	scherzo	social	831.5	1	
s04_2018_rd	3	Cz	97	sociale	diffamazione	social	776.9000000000001	1	
s04_2018_rd	3	Cz	98	quantità	mole	quantity	556.2000000000003	1	
s04_2018_rd	3	Cz	99	quantità	sfacciataggine	social	1209.1	1	
s04_2018_rd	3	Cz	100	sociale	fascino	social	715.2000000000003	1	
s04_2018_rd	3	Cz	101	quantità	plebe	social	753.3000000000002	1	
s04_2018_rd	3	Cz	102	sociale	offesa	social	630.0999999999999	1	
s04_2018_rd	3	Cz	103	sociale	dispetto	social	1367.4	1	
s04_2018_rd	3	Cz	104	sociale	socievolezza	social	651.5999999999999	1	
s04_2018_rd	3	Cz	105	quantità	ingrandimento	quantity	636.3000000000002	1	
s04_2018_rd	3	Cz	106	quantità	patto	social	789.5999999999999	1	
s04_2018_rd	3	Cz	107	sociale	etnia	social	641.2000000000003	1	
s04_2018_rd	3	Cz	108	quantità	tonnellata	quantity	618.4000000000001	1	
s04_2018_rd	3	Cz	109	sociale	cospirazione	social	756.7000000000003	1	
s04_2018_rd	3	Cz	110	quantità	riduzione	quantity	585.3000000000002	1	
s04_2018_rd	3	Cz	111	quantità	stazza	quantity	756.8000000000002	1	
s04_2018_rd	3	Cz	112	quantità	decremento	quantity	1265.5	1	
s04_2018_rd	1	rSATL	1	quantità	ingrandimento	quantity	968.5	1	
s04_2018_rd	1	rSATL	2	quantità	offesa	social	844.5999999999999	1	
s04_2018_rd	1	rSATL	3	quantità	estensione	quantity	1773.5	1	
s04_2018_rd	1	rSATL	4	quantità	sudditanza	social	857.5999999999999	1	
s04_2018_rd	1	rSATL	5	sociale	socievolezza	social	706.2000000000003	1	
s04_2018_rd	1	rSATL	6	sociale	incremento	quantity	745.2000000000003	1	
s04_2018_rd	1	rSATL	7	sociale	catasta	quantity	1517.9	1	
s04_2018_rd	1	rSATL	8	quantità	immensità	quantity	723.9000000000001	1	
s04_2018_rd	1	rSATL	9	sociale	cumulo	quantity	706.0999999999999	1	
s04_2018_rd	1	rSATL	10	sociale	rivalità	social	864.9000000000001	1	
s04_2018_rd	1	rSATL	11	quantità	emarginazione	social	944.8000000000002	1	
s04_2018_rd	1	rSATL	12	quantità	fascino	social	1477.7000000000003	1	
s04_2018_rd	1	rSATL	13	quantità	stazza	quantity	837.0999999999999	1	
s04_2018_rd	1	rSATL	14	sociale	immensità	quantity	734.4000000000001	1	
s04_2018_rd	1	rSATL	15	sociale	diminuzione	quantity	651.9000000000001	-1	
s04_2018_rd	1	rSATL	16	quantità	carico	quantity	716.8000000000002	1	
s04_2018_rd	1	rSATL	17	quantità	lusinga	social	858.8000000000002	1	
s04_2018_rd	1	rSATL	18	quantità	sfacciataggine	social	1011.5999999999999	1	
s04_2018_rd	1	rSATL	19	quantità	cospirazione	social	1013.5999999999999	1	
s04_2018_rd	1	rSATL	20	quantità	altruismo	social	1159.7000000000003	1	
s04_2018_rd	1	rSATL	21	quantità	servitù	social	995.9000000000001	1	
s04_2018_rd	1	rSATL	22	quantità	grandezza	quantity	654.5	1	
s04_2018_rd	1	rSATL	23	sociale	ingrandimento	quantity	655.3000000000002	1	
s04_2018_rd	1	rSATL	24	sociale	grossezza	quantity	816.0	1	
s04_2018_rd	1	rSATL	25	quantità	patto	social	1074.1	1	
s04_2018_rd	1	rSATL	26	quantità	rivalità	social	762.3000000000002	1	
s04_2018_rd	1	rSATL	27	sociale	cospirazione	social	934.4000000000001	1	
s04_2018_rd	1	rSATL	28	quantità	allargamento	quantity	1243.7000000000003	1	
s04_2018_rd	1	rSATL	29	quantità	massa	quantity	788.5999999999999	1	
s04_2018_rd	1	rSATL	30	sociale	relazione	social	807.9000000000001	1	
s04_2018_rd	1	rSATL	31	sociale	tradizione	social	1482.8000000000002	1	
s04_2018_rd	1	rSATL	32	sociale	stazza	quantity	722.3000000000002	1	
s04_2018_rd	1	rSATL	33	quantità	diffamazione	social	1072.4	1	
s04_2018_rd	1	rSATL	34	quantità	dispetto	social	744.5	1	
s04_2018_rd	1	rSATL	35	sociale	scherzo	social	1749.1	1	
s04_2018_rd	1	rSATL	36	quantità	relazione	social	689.9000000000001	1	
s04_2018_rd	1	rSATL	37	sociale	venerazione	social	1057.3000000000002	1	
s04_2018_rd	1	rSATL	38	sociale	sfacciataggine	social	738.2000000000003	1	
s04_2018_rd	1	rSATL	39	sociale	etnia	social	999.4000000000001	1	
s04_2018_rd	1	rSATL	40	quantità	accumulo	quantity	762.4000000000001	1	
s04_2018_rd	1	rSATL	41	sociale	fascino	social	598.3000000000002	1	
s04_2018_rd	1	rSATL	42	quantità	tonnellata	quantity	1353.2000000000003	1	
s04_2018_rd	1	rSATL	43	sociale	riduzione	quantity	766.0	1	
s04_2018_rd	1	rSATL	44	sociale	carenza	quantity	730.0999999999999	1	
s04_2018_rd	1	rSATL	45	quantità	tradizione	social	1143.3000000000002	1	
s04_2018_rd	1	rSATL	46	quantità	gentilezza	social	716.2000000000003	1	
s04_2018_rd	1	rSATL	47	sociale	allargamento	quantity	754.2000000000003	1	
s04_2018_rd	1	rSATL	48	sociale	accumulo	quantity	663.0999999999999	1	
s04_2018_rd	1	rSATL	49	sociale	addizione	quantity	735.0	1	
s04_2018_rd	1	rSATL	50	sociale	dissenso	social	972.5999999999999	1	
s04_2018_rd	1	rSATL	51	sociale	mole	quantity	688.7000000000003	1	
s04_2018_rd	1	rSATL	52	sociale	plebe	social	816.0999999999999	1	
s04_2018_rd	1	rSATL	53	sociale	complotto	social	658.0999999999999	1	
s04_2018_rd	1	rSATL	54	sociale	diffamazione	social	835.0	1	
s04_2018_rd	1	rSATL	55	quantità	venerazione	social	1244.3000000000002	1	
s04_2018_rd	1	rSATL	56	sociale	dilatazione	quantity	1805.2000000000003	1	
s04_2018_rd	1	rSATL	57	quantità	notorietà	social	775.8000000000002	1	
s04_2018_rd	1	rSATL	58	quantità	socievolezza	social	1563.4	1	
s04_2018_rd	1	rSATL	59	sociale	massa	quantity	1175.5	1	
s04_2018_rd	1	rSATL	60	quantità	carenza	quantity	1763.4	1	
s04_2018_rd	1	rSATL	61	quantità	etnia	social	1375.7000000000003	1	
s04_2018_rd	1	rSATL	62	quantità	mole	quantity	987.0	1	
s04_2018_rd	1	rSATL	63	sociale	frazione	quantity	1278.4	1	
s04_2018_rd	1	rSATL	64	sociale	tonnellata	quantity	678.0	1	
s04_2018_rd	1	rSATL	65	sociale	porzione	quantity	1133.3000000000002	1	
s04_2018_rd	1	rSATL	66	quantità	porzione	quantity	954.9000000000001	1	
s04_2018_rd	1	rSATL	67	sociale	grandezza	quantity	671.5	1	
s04_2018_rd	1	rSATL	68	quantità	grossezza	quantity	679.7000000000003	1	
s04_2018_rd	1	rSATL	69	sociale	gentilezza	social	903.0	1	
s04_2018_rd	1	rSATL	70	sociale	espansione	quantity	789.8000000000002	1	
s04_2018_rd	1	rSATL	71	quantità	espansione	quantity	793.3000000000002	1	
s04_2018_rd	1	rSATL	72	sociale	sudditanza	social	1243.9	1	
s04_2018_rd	1	rSATL	73	sociale	lusinga	social	612.8000000000002	1	
s04_2018_rd	1	rSATL	74	sociale	alleanza	social	782.8000000000002	1	
s04_2018_rd	1	rSATL	75	quantità	riduzione	quantity	754.4000000000001	1	
s04_2018_rd	1	rSATL	76	quantità	accrescimento	quantity	695.0999999999999	1	
s04_2018_rd	1	rSATL	77	quantità	enormità	quantity	1133.7000000000003	1	
s04_2018_rd	1	rSATL	78	quantità	incremento	quantity	651.3000000000002	1	
s04_2018_rd	1	rSATL	79	sociale	patto	social	572.0	-1	
s04_2018_rd	1	rSATL	80	quantità	penuria	quantity	1064.0	1	
s04_2018_rd	1	rSATL	81	quantità	infamia	social	1008.0999999999999	1	
s04_2018_rd	1	rSATL	82	quantità	dissenso	social	883.0	1	
s04_2018_rd	1	rSATL	83	quantità	plebe	social	1506.4	1	
s04_2018_rd	1	rSATL	84	quantità	complotto	social	697.0999999999999	1	
s04_2018_rd	1	rSATL	85	quantità	scherzo	social	751.9000000000001	1	
s04_2018_rd	1	rSATL	86	sociale	quintale	quantity	724.5999999999999	1	
s04_2018_rd	1	rSATL	87	sociale	dispetto	social	722.8000000000002	1	
s04_2018_rd	1	rSATL	88	sociale	infamia	social	1072.9	1	
s04_2018_rd	1	rSATL	89	quantità	catasta	quantity	664.8000000000002	1	
s04_2018_rd	1	rSATL	90	quantità	dilatazione	quantity	2344.9	1	
s04_2018_rd	1	rSATL	91	quantità	addizione	quantity	717.8000000000002	1	
s04_2018_rd	1	rSATL	92	sociale	nomea	social	1147.8000000000002	1	
s04_2018_rd	1	rSATL	93	sociale	estensione	quantity	1568.6	1	
s04_2018_rd	1	rSATL	94	quantità	cumulo	quantity	604.8000000000002	1	
s04_2018_rd	1	rSATL	95	quantità	competizione	social	999.4000000000001	1	
s04_2018_rd	1	rSATL	96	sociale	competizione	social	594.3000000000002	1	
s04_2018_rd	1	rSATL	97	sociale	emarginazione	social	804.9000000000001	1	
s04_2018_rd	1	rSATL	98	quantità	alleanza	social	807.7000000000003	1	
s04_2018_rd	1	rSATL	99	quantità	nomea	social	682.5	1	
s04_2018_rd	1	rSATL	100	sociale	penuria	quantity	1018.0	1	
s04_2018_rd	1	rSATL	101	sociale	altruismo	social	1212.0	1	
s04_2018_rd	1	rSATL	102	sociale	carico	quantity	734.0999999999999	1	
s04_2018_rd	1	rSATL	103	sociale	decremento	quantity	739.5999999999999	1	
s04_2018_rd	1	rSATL	104	sociale	notorietà	social	969.0999999999999	1	
s04_2018_rd	1	rSATL	105	quantità	decremento	quantity	997.2000000000003	-1	
s04_2018_rd	1	rSATL	106	sociale	offesa	social	679.9000000000001	1	
s04_2018_rd	1	rSATL	107	quantità	quintale	quantity	719.2000000000003	1	
s04_2018_rd	1	rSATL	108	sociale	servitù	social	861.4000000000001	1	
s04_2018_rd	1	rSATL	109	quantità	frazione	quantity	693.4000000000001	1	
s04_2018_rd	1	rSATL	110	sociale	accrescimento	quantity	1156.3000000000002	1	
s04_2018_rd	1	rSATL	111	sociale	enormità	quantity	1416.9	1	
s04_2018_rd	1	rSATL	112	quantità	diminuzione	quantity	995.0999999999999	1	
s26_2018_nb	2	rIPS	1	sociale	dilatazione	quantity	724.5999999999999	1	
s26_2018_nb	2	rIPS	2	quantità	plebe	social	650.5999999999999	1	
s26_2018_nb	2	rIPS	3	sociale	catasta	quantity	891.5	-1	
s26_2018_nb	2	rIPS	4	sociale	complotto	social	554.9000000000001	1	
s26_2018_nb	2	rIPS	5	sociale	carico	quantity	999.5	1	
s26_2018_nb	2	rIPS	6	sociale	frazione	quantity	690.4000000000001	1	
s26_2018_nb	2	rIPS	7	quantità	venerazione	social	849.8000000000002	1	
s26_2018_nb	2	rIPS	8	quantità	carenza	quantity	1138.6	1	
s26_2018_nb	2	rIPS	9	quantità	cumulo	quantity	1248.0	-1	
s26_2018_nb	2	rIPS	10	quantità	estensione	quantity	1192.8000000000002	1	
s26_2018_nb	2	rIPS	11	sociale	enormità	quantity	747.4000000000001	1	
s26_2018_nb	2	rIPS	12	sociale	infamia	social	1616.1	1	
s26_2018_nb	2	rIPS	13	quantità	relazione	social	730.4000000000001	1	
s26_2018_nb	2	rIPS	14	sociale	mole	quantity	927.7000000000003	1	
s26_2018_nb	2	rIPS	15	sociale	alleanza	social	605.0999999999999	1	
s26_2018_nb	2	rIPS	16	quantità	addizione	quantity	936.0	1	
s26_2018_nb	2	rIPS	17	sociale	porzione	quantity	765.3000000000002	1	
s26_2018_nb	2	rIPS	18	sociale	espansione	quantity	1425.4	1	
s26_2018_nb	2	rIPS	19	sociale	grossezza	quantity	795.5999999999999	1	
s26_2018_nb	2	rIPS	20	sociale	stazza	quantity	958.4000000000001	1	
s26_2018_nb	2	rIPS	21	sociale	dissenso	social	747.0999999999999	1	
s26_2018_nb	2	rIPS	22	quantità	dissenso	social	743.9000000000001	1	
s26_2018_nb	2	rIPS	23	sociale	venerazione	social	628.5999999999999	1	
s26_2018_nb	2	rIPS	24	quantità	accumulo	quantity	646.0	1	
s26_2018_nb	2	rIPS	25	quantità	incremento	quantity	782.7000000000003	1	
s26_2018_nb	2	rIPS	26	quantità	lusinga	social	578.2000000000003	1	
s26_2018_nb	2	rIPS	27	quantità	fascino	social	541.5	1	
s26_2018_nb	2	rIPS	28	quantità	sfacciataggine	social	698.9000000000001	1	
s26_2018_nb	2	rIPS	29	quantità	decremento	quantity	785.8000000000002	1	
s26_2018_nb	2	rIPS	30	quantità	dilatazione	quantity	653.2000000000003	1	
s26_2018_nb	2	rIPS	31	quantità	ingrandimento	quantity	693.8000000000002	1	
s26_2018_nb	2	rIPS	32	sociale	servitù	social	756.5999999999999	1	
s26_2018_nb	2	rIPS	33	quantità	patto	social	689.3000000000002	1	
s26_2018_nb	2	rIPS	34	quantità	tonnellata	quantity	1192.9	1	
s26_2018_nb	2	rIPS	35	quantità	etnia	social	699.7000000000003	1	
s26_2018_nb	2	rIPS	36	sociale	accrescimento	quantity	1170.4	1	
s26_2018_nb	2	rIPS	37	sociale	rivalità	social	1270.4	1	
s26_2018_nb	2	rIPS	38	quantità	rivalità	social	662.5999999999999	1	
s26_2018_nb	2	rIPS	39	quantità	immensità	quantity	806.5999999999999	1	
s26_2018_nb	2	rIPS	40	quantità	frazione	quantity	721.3000000000002	1	
s26_2018_nb	2	rIPS	41	sociale	plebe	social	607.5	1	
s26_2018_nb	2	rIPS	42	quantità	stazza	quantity	938.3000000000002	1	
s26_2018_nb	2	rIPS	43	quantità	altruismo	social	639.7000000000003	1	
s26_2018_nb	2	rIPS	44	sociale	patto	social	625.0999999999999	1	
s26_2018_nb	2	rIPS	45	quantità	complotto	social	723.2000000000003	1	
s26_2018_nb	2	rIPS	46	sociale	accumulo	quantity	745.2000000000003	1	
s26_2018_nb	2	rIPS	47	quantità	espansione	quantity	1101.9	1	
s26_2018_nb	2	rIPS	48	sociale	gentilezza	social	980.8000000000002	1	
s26_2018_nb	2	rIPS	49	sociale	addizione	quantity	624.0999999999999	1	
s26_2018_nb	2	rIPS	50	quantità	grossezza	quantity	650.3000000000002	1	
s26_2018_nb	2	rIPS	51	quantità	gentilezza	social	643.0999999999999	1	
s26_2018_nb	2	rIPS	52	sociale	dispetto	social	1203.7000000000003	1	
s26_2018_nb	2	rIPS	53	quantità	catasta	quantity	846.5	1	
s26_2018_nb	2	rIPS	54	sociale	allargamento	quantity	671.3000000000002	-1	
s26_2018_nb	2	rIPS	55	sociale	tradizione	social	807.4000000000001	1	
s26_2018_nb	2	rIPS	56	sociale	nomea	social	722.0	1	
s26_2018_nb	2	rIPS	57	sociale	quintale	quantity	624.0999999999999	1	
s26_2018_nb	2	rIPS	58	quantità	nomea	social	610.4000000000001	1	
s26_2018_nb	2	rIPS	59	quantità	diffamazione	social	740.7000000000003	1	
s26_2018_nb	2	rIPS	60	quantità	tradizione	social	649.9000000000001	1	
s26_2018_nb	2	rIPS	61	sociale	immensità	quantity	1098.5	1	
s26_2018_nb	2	rIPS	62	quantità	penuria	quantity	697.2000000000003	-1	
s26_2018_nb	2	rIPS	63	sociale	estensione	quantity	1496.0	1	
s26_2018_nb	2	rIPS	64	sociale	tonnellata	quantity	654.8000000000002	1	
s26_2018_nb	2	rIPS	65	sociale	diffamazione	social	591.5	1	
s26_2018_nb	2	rIPS	66	sociale	cumulo	quantity	738.9000000000001	1	
s26_2018_nb	2	rIPS	67	sociale	penuria	quantity	984.5	-1	
s26_2018_nb	2	rIPS	68	sociale	socievolezza	social	659.8000000000002	1	
s26_2018_nb	2	rIPS	69	quantità	riduzione	quantity	923.9000000000001	1	
s26_2018_nb	2	rIPS	70	sociale	sudditanza	social	697.9000000000001	1	
s26_2018_nb	2	rIPS	71	quantità	scherzo	social	632.8000000000002	1	
s26_2018_nb	2	rIPS	72	sociale	altruismo	social	506.2000000000003	1	
s26_2018_nb	2	rIPS	73	quantità	notorietà	social	601.0	1	
s26_2018_nb	2	rIPS	74	quantità	mole	quantity	811.7000000000003	1	
s26_2018_nb	2	rIPS	75	sociale	massa	quantity	613.8000000000002	1	
s26_2018_nb	2	rIPS	76	quantità	accrescimento	quantity	1023.8000000000002	1	
s26_2018_nb	2	rIPS	77	sociale	emarginazione	social	674.0	1	
s26_2018_nb	2	rIPS	78	quantità	infamia	social	634.0	1	
s26_2018_nb	2	rIPS	79	sociale	lusinga	social	1163.5	1	
s26_2018_nb	2	rIPS	80	sociale	scherzo	social	615.5999999999999	1	
s26_2018_nb	2	rIPS	81	quantità	servitù	social	593.5999999999999	1	
s26_2018_nb	2	rIPS	82	quantità	grandezza	quantity	868.4000000000001	1	
s26_2018_nb	2	rIPS	83	sociale	diminuzione	quantity	796.4000000000001	1	
s26_2018_nb	2	rIPS	84	quantità	enormità	quantity	783.2000000000003	1	
s26_2018_nb	2	rIPS	85	sociale	decremento	quantity	762.5999999999999	1	
s26_2018_nb	2	rIPS	86	quantità	allargamento	quantity	750.7000000000003	1	
s26_2018_nb	2	rIPS	87	sociale	offesa	social	691.5	1	
s26_2018_nb	2	rIPS	88	quantità	diminuzione	quantity	586.8000000000002	1	
s26_2018_nb	2	rIPS	89	quantità	competizione	social	910.4000000000001	1	
s26_2018_nb	2	rIPS	90	sociale	ingrandimento	quantity	732.3000000000002	1	
s26_2018_nb	2	rIPS	91	quantità	dispetto	social	633.8000000000002	1	
s26_2018_nb	2	rIPS	92	sociale	grandezza	quantity	587.2000000000003	1	
s26_2018_nb	2	rIPS	93	sociale	riduzione	quantity	742.5999999999999	1	
s26_2018_nb	2	rIPS	94	quantità	massa	quantity	843.3000000000002	1	
s26_2018_nb	2	rIPS	95	quantità	alleanza	social	596.0999999999999	1	
s26_2018_nb	2	rIPS	96	sociale	incremento	quantity	703.0	1	
s26_2018_nb	2	rIPS	97	sociale	sfacciataggine	social	717.5999999999999	1	
s26_2018_nb	2	rIPS	98	sociale	etnia	social	555.7000000000003	1	
s26_2018_nb	2	rIPS	99	quantità	carico	quantity	760.5	1	
s26_2018_nb	2	rIPS	100	sociale	notorietà	social	620.5999999999999	1	
s26_2018_nb	2	rIPS	101	quantità	emarginazione	social	942.5999999999999	1	
s26_2018_nb	2	rIPS	102	sociale	competizione	social	675.5	1	
s26_2018_nb	2	rIPS	103	quantità	cospirazione	social	779.5999999999999	1	
s26_2018_nb	2	rIPS	104	quantità	socievolezza	social	646.9000000000001	1	
s26_2018_nb	2	rIPS	105	sociale	cospirazione	social	615.7000000000003	1	
s26_2018_nb	2	rIPS	106	quantità	offesa	social	601.8000000000002	1	
s26_2018_nb	2	rIPS	107	sociale	fascino	social	668.4000000000001	1	
s26_2018_nb	2	rIPS	108	sociale	carenza	quantity	756.5	1	
s26_2018_nb	2	rIPS	109	quantità	porzione	quantity	705.4000000000001	1	
s26_2018_nb	2	rIPS	110	quantità	quintale	quantity	984.0	1	
s26_2018_nb	2	rIPS	111	quantità	sudditanza	social	691.5999999999999	1	
s26_2018_nb	2	rIPS	112	sociale	relazione	social	674.9000000000001	1	
s22_2018_cf	2	rIPS	1	quantità	grandezza	quantity	1031.5	1	
s22_2018_cf	2	rIPS	2	sociale	relazione	social	985.0	1	
s22_2018_cf	2	rIPS	3	sociale	porzione	quantity	1628.4	-1	
s22_2018_cf	2	rIPS	4	quantità	sudditanza	social	694.0	1	
s22_2018_cf	2	rIPS	5	sociale	etnia	social	676.8000000000002	1	
s22_2018_cf	2	rIPS	6	quantità	venerazione	social	740.2000000000003	1	
s22_2018_cf	2	rIPS	7	quantità	notorietà	social	929.5999999999999	1	
s22_2018_cf	2	rIPS	8	quantità	infamia	social	775.0	1	
s22_2018_cf	2	rIPS	9	sociale	fascino	social	723.0	1	
s22_2018_cf	2	rIPS	10	sociale	riduzione	quantity	921.0999999999999	1	
s22_2018_cf	2	rIPS	11	quantità	cospirazione	social	2159.2000000000003	1	
s22_2018_cf	2	rIPS	12	sociale	decremento	quantity	803.3000000000002	1	
s22_2018_cf	2	rIPS	13	sociale	patto	social	1382.0	1	
s22_2018_cf	2	rIPS	14	quantità	mole	quantity	641.5999999999999	1	
s22_2018_cf	2	rIPS	15	quantità	dispetto	social	1370.9	1	
s22_2018_cf	2	rIPS	16	sociale	infamia	social	943.0	1	
s22_2018_cf	2	rIPS	17	quantità	penuria	quantity	1795.9	1	
s22_2018_cf	2	rIPS	18	sociale	frazione	quantity	1254.5	1	
s22_2018_cf	2	rIPS	19	sociale	altruismo	social	623.5	1	
s22_2018_cf	2	rIPS	20	quantità	dissenso	social	641.4000000000001	1	
s22_2018_cf	2	rIPS	21	quantità	patto	social	610.8000000000002	1	
s22_2018_cf	2	rIPS	22	sociale	cumulo	quantity	613.0999999999999	1	
s22_2018_cf	2	rIPS	23	quantità	rivalità	social	575.0999999999999	1	
s22_2018_cf	2	rIPS	24	quantità	grossezza	quantity	667.0999999999999	1	
s22_2018_cf	2	rIPS	25	sociale	alleanza	social	819.3000000000002	1	
s22_2018_cf	2	rIPS	26	sociale	dissenso	social	917.4000000000001	1	
s22_2018_cf	2	rIPS	27	sociale	gentilezza	social	851.5	1	
s22_2018_cf	2	rIPS	28	sociale	accumulo	quantity	628.3000000000002	1	
s22_2018_cf	2	rIPS	29	sociale	dispetto	social	821.7000000000003	1	
s22_2018_cf	2	rIPS	30	sociale	lusinga	social	679.5999999999999	1	
s22_2018_cf	2	rIPS	31	quantità	complotto	social	711.0	1	
s22_2018_cf	2	rIPS	32	quantità	scherzo	social	997.3000000000002	1	
s22_2018_cf	2	rIPS	33	quantità	nomea	social	647.9000000000001	1	
s22_2018_cf	2	rIPS	34	sociale	immensità	quantity	760.7000000000003	1	
s22_2018_cf	2	rIPS	35	sociale	allargamento	quantity	836.9000000000001	1	
s22_2018_cf	2	rIPS	36	quantità	cumulo	quantity	1222.2000000000003	1	
s22_2018_cf	2	rIPS	37	sociale	penuria	quantity	1080.3000000000002	1	
s22_2018_cf	2	rIPS	38	quantità	porzione	quantity	631.9000000000001	1	
s22_2018_cf	2	rIPS	39	quantità	emarginazione	social	617.0999999999999	1	
s22_2018_cf	2	rIPS	40	quantità	estensione	quantity	1219.3000000000002	1	
s22_2018_cf	2	rIPS	41	quantità	massa	quantity	733.3000000000002	1	
s22_2018_cf	2	rIPS	42	sociale	incremento	quantity	914.9000000000001	1	
s22_2018_cf	2	rIPS	43	sociale	venerazione	social	632.8000000000002	1	
s22_2018_cf	2	rIPS	44	sociale	socievolezza	social	618.4000000000001	1	
s22_2018_cf	2	rIPS	45	sociale	diffamazione	social	1084.5	1	
s22_2018_cf	2	rIPS	46	sociale	tonnellata	quantity	587.9000000000001	1	
s22_2018_cf	2	rIPS	47	sociale	nomea	social	615.3000000000002	1	
s22_2018_cf	2	rIPS	48	sociale	accrescimento	quantity	1153.3000000000002	1	
s22_2018_cf	2	rIPS	49	sociale	grossezza	quantity	1350.0	-1	
s22_2018_cf	2	rIPS	50	sociale	diminuzione	quantity	1458.8000000000002	1	
s22_2018_cf	2	rIPS	51	quantità	riduzione	quantity	635.7000000000003	1	
s22_2018_cf	2	rIPS	52	sociale	addizione	quantity	677.0	1	
s22_2018_cf	2	rIPS	53	quantità	quintale	quantity	764.5	1	
s22_2018_cf	2	rIPS	54	quantità	allargamento	quantity	616.7000000000003	-1	
s22_2018_cf	2	rIPS	55	quantità	sfacciataggine	social	1274.6	1	
s22_2018_cf	2	rIPS	56	quantità	carenza	quantity	722.7000000000003	1	
s22_2018_cf	2	rIPS	57	quantità	espansione	quantity	552.9000000000001	1	
s22_2018_cf	2	rIPS	58	quantità	dilatazione	quantity	709.5	1	
s22_2018_cf	2	rIPS	59	quantità	lusinga	social	627.8000000000002	1	
s22_2018_cf	2	rIPS	60	sociale	stazza	quantity	717.2000000000003	1	
s22_2018_cf	2	rIPS	61	sociale	sfacciataggine	social	1091.3000000000002	1	
s22_2018_cf	2	rIPS	62	quantità	competizione	social	986.5999999999999	1	
s22_2018_cf	2	rIPS	63	sociale	cospirazione	social	1030.0	1	
s22_2018_cf	2	rIPS	64	sociale	quintale	quantity	615.5999999999999	1	
s22_2018_cf	2	rIPS	65	quantità	ingrandimento	quantity	1145.7000000000003	1	
s22_2018_cf	2	rIPS	66	sociale	servitù	social	590.4000000000001	1	
s22_2018_cf	2	rIPS	67	quantità	gentilezza	social	689.8000000000002	1	
s22_2018_cf	2	rIPS	68	sociale	espansione	quantity	769.0999999999999	1	
s22_2018_cf	2	rIPS	69	quantità	altruismo	social	989.3000000000002	1	
s22_2018_cf	2	rIPS	70	sociale	dilatazione	quantity	760.5999999999999	1	
s22_2018_cf	2	rIPS	71	quantità	incremento	quantity	684.9000000000001	1	
s22_2018_cf	2	rIPS	72	sociale	notorietà	social	572.3000000000002	1	
s22_2018_cf	2	rIPS	73	quantità	addizione	quantity	760.3000000000002	1	
s22_2018_cf	2	rIPS	74	quantità	relazione	social	796.3000000000002	1	
s22_2018_cf	2	rIPS	75	sociale	ingrandimento	quantity	567.2000000000003	1	
s22_2018_cf	2	rIPS	76	sociale	mole	quantity	531.2000000000003	1	
s22_2018_cf	2	rIPS	77	quantità	immensità	quantity	1152.6	1	
s22_2018_cf	2	rIPS	78	sociale	offesa	social	805.5	1	
s22_2018_cf	2	rIPS	79	sociale	carenza	quantity	1136.2000000000003	1	
s22_2018_cf	2	rIPS	80	quantità	accrescimento	quantity	877.7000000000003	1	
s22_2018_cf	2	rIPS	81	quantità	alleanza	social	605.0999999999999	1	
s22_2018_cf	2	rIPS	82	quantità	enormità	quantity	679.7000000000003	1	
s22_2018_cf	2	rIPS	83	quantità	carico	quantity	655.0999999999999	1	
s22_2018_cf	2	rIPS	84	quantità	plebe	social	519.9000000000001	1	
s22_2018_cf	2	rIPS	85	quantità	etnia	social	502.0999999999999	1	
s22_2018_cf	2	rIPS	86	quantità	servitù	social	596.7000000000003	1	
s22_2018_cf	2	rIPS	87	sociale	emarginazione	social	999.5	1	
s22_2018_cf	2	rIPS	88	sociale	scherzo	social	602.4000000000001	1	
s22_2018_cf	2	rIPS	89	sociale	catasta	quantity	605.0	1	
s22_2018_cf	2	rIPS	90	quantità	offesa	social	575.9000000000001	1	
s22_2018_cf	2	rIPS	91	quantità	tonnellata	quantity	1075.3000000000002	-1	
s22_2018_cf	2	rIPS	92	quantità	decremento	quantity	579.2000000000003	1	
s22_2018_cf	2	rIPS	93	quantità	catasta	quantity	782.7000000000003	1	
s22_2018_cf	2	rIPS	94	sociale	tradizione	social	634.2000000000003	1	
s22_2018_cf	2	rIPS	95	sociale	grandezza	quantity	1091.6	1	
s22_2018_cf	2	rIPS	96	sociale	plebe	social	875.0999999999999	1	
s22_2018_cf	2	rIPS	97	sociale	carico	quantity	771.2000000000003	1	
s22_2018_cf	2	rIPS	98	sociale	enormità	quantity	495.2000000000003	-1	
s22_2018_cf	2	rIPS	99	quantità	diminuzione	quantity	1341.9	1	
s22_2018_cf	2	rIPS	100	sociale	massa	quantity	1163.3000000000002	1	
s22_2018_cf	2	rIPS	101	sociale	competizione	social	663.4000000000001	1	
s22_2018_cf	2	rIPS	102	sociale	sudditanza	social	711.5999999999999	1	
s22_2018_cf	2	rIPS	103	sociale	complotto	social	597.5999999999999	1	
s22_2018_cf	2	rIPS	104	quantità	frazione	quantity	648.5	1	
s22_2018_cf	2	rIPS	105	quantità	accumulo	quantity	889.0999999999999	-1	
s22_2018_cf	2	rIPS	106	quantità	diffamazione	social	968.5	1	
s22_2018_cf	2	rIPS	107	quantità	socievolezza	social	924.5999999999999	1	
s22_2018_cf	2	rIPS	108	sociale	estensione	quantity	994.7000000000003	1	
s22_2018_cf	2	rIPS	109	quantità	tradizione	social	789.5999999999999	1	
s22_2018_cf	2	rIPS	110	sociale	rivalità	social	1568.9	1	
s22_2018_cf	2	rIPS	111	quantità	fascino	social	541.0999999999999	1	
s22_2018_cf	2	rIPS	112	quantità	stazza	quantity	770.4000000000001	1	
s21_2018_nf	2	Cz	1	sociale	plebe	social	954.4000000000001	1	
s21_2018_nf	2	Cz	2	quantità	penuria	quantity	2255.0000000000005	-1	
s21_2018_nf	2	Cz	3	quantità	frazione	quantity	704.0	1	
s21_2018_nf	2	Cz	4	sociale	cumulo	quantity	1150.7000000000003	1	
s21_2018_nf	2	Cz	5	quantità	dispetto	social	875.5	1	
s21_2018_nf	2	Cz	6	quantità	socievolezza	social	1099.6	1	
s21_2018_nf	2	Cz	7	sociale	gentilezza	social	578.2000000000003	1	
s21_2018_nf	2	Cz	8	sociale	notorietà	social	741.7000000000003	1	
s21_2018_nf	2	Cz	9	quantità	accrescimento	quantity	1043.2000000000003	1	
s21_2018_nf	2	Cz	10	sociale	penuria	quantity	1187.9	-1	
s21_2018_nf	2	Cz	11	quantità	riduzione	quantity	727.3000000000002	1	
s21_2018_nf	2	Cz	12	quantità	gentilezza	social	724.8000000000002	1	
s21_2018_nf	2	Cz	13	quantità	tradizione	social	1554.9	1	
s21_2018_nf	2	Cz	14	sociale	diminuzione	quantity	1079.6	1	
s21_2018_nf	2	Cz	15	quantità	infamia	social	766.9000000000001	1	
s21_2018_nf	2	Cz	16	sociale	catasta	quantity	1099.2000000000003	1	
s21_2018_nf	2	Cz	17	quantità	allargamento	quantity	1153.9	1	
s21_2018_nf	2	Cz	18	quantità	nomea	social	702.5999999999999	1	
s21_2018_nf	2	Cz	19	sociale	accrescimento	quantity	2021.4	1	
s21_2018_nf	2	Cz	20	sociale	incremento	quantity	1775.4	1	
s21_2018_nf	2	Cz	21	quantità	plebe	social	1411.0	1	
s21_2018_nf	2	Cz	22	quantità	sfacciataggine	social	869.0999999999999	1	
s21_2018_nf	2	Cz	23	quantità	diffamazione	social	757.2000000000003	1	
s21_2018_nf	2	Cz	24	sociale	etnia	social	1250.0	1	
s21_2018_nf	2	Cz	25	sociale	carico	quantity	1034.7000000000003	1	
s21_2018_nf	2	Cz	26	sociale	alleanza	social	1172.0	1	
s21_2018_nf	2	Cz	27	sociale	porzione	quantity	736.2000000000003	1	
s21_2018_nf	2	Cz	28	sociale	ingrandimento	quantity	1333.6	1	
s21_2018_nf	2	Cz	29	sociale	decremento	quantity	827.0999999999999	1	
s21_2018_nf	2	Cz	30	quantità	patto	social	892.5999999999999	1	
s21_2018_nf	2	Cz	31	sociale	servitù	social	619.2000000000003	1	
s21_2018_nf	2	Cz	32	sociale	mole	quantity	797.3000000000002	1	
s21_2018_nf	2	Cz	33	sociale	immensità	quantity	1640.0	1	
s21_2018_nf	2	Cz	34	sociale	scherzo	social	865.5999999999999	1	
s21_2018_nf	2	Cz	35	sociale	cospirazione	social	1465.7000000000003	1	
s21_2018_nf	2	Cz	36	sociale	enormità	quantity	1433.7000000000003	1	
s21_2018_nf	2	Cz	37	sociale	frazione	quantity	643.3000000000002	1	
s21_2018_nf	2	Cz	38	sociale	diffamazione	social	675.9000000000001	1	
s21_2018_nf	2	Cz	39	sociale	massa	quantity	699.4000000000001	1	
s21_2018_nf	2	Cz	40	quantità	etnia	social	642.0999999999999	1	
s21_2018_nf	2	Cz	41	sociale	grossezza	quantity	827.5999999999999	1	
s21_2018_nf	2	Cz	42	sociale	nomea	social	621.0	1	
s21_2018_nf	2	Cz	43	quantità	accumulo	quantity	975.0999999999999	1	
s21_2018_nf	2	Cz	44	sociale	emarginazione	social	1211.1	1	
s21_2018_nf	2	Cz	45	sociale	dissenso	social	1061.3000000000002	1	
s21_2018_nf	2	Cz	46	sociale	competizione	social	1045.4	1	
s21_2018_nf	2	Cz	47	quantità	scherzo	social	774.2000000000003	1	
s21_2018_nf	2	Cz	48	quantità	carenza	quantity	722.2000000000003	1	
s21_2018_nf	2	Cz	49	sociale	sudditanza	social	1152.2000000000003	1	
s21_2018_nf	2	Cz	50	sociale	quintale	quantity	861.0	1	
s21_2018_nf	2	Cz	51	quantità	notorietà	social	1269.1	1	
s21_2018_nf	2	Cz	52	quantità	servitù	social	701.3000000000002	1	
s21_2018_nf	2	Cz	53	sociale	estensione	quantity	1076.1	1	
s21_2018_nf	2	Cz	54	sociale	altruismo	social	955.5	1	
s21_2018_nf	2	Cz	55	sociale	relazione	social	784.0999999999999	1	
s21_2018_nf	2	Cz	57	quantità	emarginazione	social	1313.0	-1	
s21_2018_nf	2	Cz	58	quantità	cumulo	quantity	679.3000000000002	1	
s21_2018_nf	2	Cz	59	quantità	dilatazione	quantity	870.7000000000003	1	
s21_2018_nf	2	Cz	60	sociale	stazza	quantity	1070.8000000000002	1	
s21_2018_nf	2	Cz	61	sociale	dilatazione	quantity	702.7000000000003	1	
s21_2018_nf	2	Cz	62	quantità	lusinga	social	861.5	1	
s21_2018_nf	2	Cz	63	sociale	addizione	quantity	837.5999999999999	1	
s21_2018_nf	2	Cz	64	quantità	dissenso	social	1271.0	1	
s21_2018_nf	2	Cz	65	sociale	dispetto	social	991.2000000000003	1	
s21_2018_nf	2	Cz	66	sociale	tonnellata	quantity	706.7000000000003	1	
s21_2018_nf	2	Cz	67	quantità	estensione	quantity	1073.4	1	
s21_2018_nf	2	Cz	68	quantità	cospirazione	social	1201.4	1	
s21_2018_nf	2	Cz	69	sociale	sfacciataggine	social	1956.1	1	
s21_2018_nf	2	Cz	70	sociale	espansione	quantity	681.0	1	
s21_2018_nf	2	Cz	71	quantità	relazione	social	1208.4	1	
s21_2018_nf	2	Cz	72	quantità	complotto	social	1683.1	1	
s21_2018_nf	2	Cz	73	sociale	lusinga	social	1290.6	1	
s21_2018_nf	2	Cz	74	quantità	enormità	quantity	850.0	1	
s21_2018_nf	2	Cz	75	sociale	rivalità	social	890.9000000000001	1	
s21_2018_nf	2	Cz	76	quantità	mole	quantity	850.2000000000003	1	
s21_2018_nf	2	Cz	77	quantità	decremento	quantity	763.0999999999999	1	
s21_2018_nf	2	Cz	78	sociale	carenza	quantity	959.2000000000003	1	
s21_2018_nf	2	Cz	79	quantità	porzione	quantity	651.3000000000002	1	
s21_2018_nf	2	Cz	80	sociale	tradizione	social	923.9000000000001	1	
s21_2018_nf	2	Cz	81	quantità	stazza	quantity	634.0	1	
s21_2018_nf	2	Cz	82	quantità	addizione	quantity	1859.4	1	
s21_2018_nf	2	Cz	83	quantità	sudditanza	social	691.7000000000003	1	
s21_2018_nf	2	Cz	84	quantità	competizione	social	683.0999999999999	1	
s21_2018_nf	2	Cz	85	quantità	carico	quantity	474.5	1	
s21_2018_nf	2	Cz	86	quantità	incremento	quantity	786.5999999999999	1	
s21_2018_nf	2	Cz	87	quantità	altruismo	social	613.9000000000001	1	
s21_2018_nf	2	Cz	88	quantità	catasta	quantity	696.0999999999999	1	
s21_2018_nf	2	Cz	89	quantità	offesa	social	966.7000000000003	1	
s21_2018_nf	2	Cz	90	quantità	diminuzione	quantity	538.8000000000002	1	
s21_2018_nf	2	Cz	91	sociale	venerazione	social	728.4000000000001	1	
s21_2018_nf	2	Cz	92	sociale	offesa	social	1061.8000000000002	1	
s21_2018_nf	2	Cz	93	sociale	infamia	social	1197.8000000000002	1	
s21_2018_nf	2	Cz	94	quantità	rivalità	social	1032.6	1	
s21_2018_nf	2	Cz	95	sociale	accumulo	quantity	754.0999999999999	1	
s21_2018_nf	2	Cz	96	sociale	allargamento	quantity	590.7000000000003	1	
s21_2018_nf	2	Cz	97	quantità	alleanza	social	1010.2000000000003	1	
s21_2018_nf	2	Cz	98	quantità	fascino	social	1284.2000000000003	1	
s21_2018_nf	2	Cz	99	sociale	complotto	social	627.8000000000002	1	
s21_2018_nf	2	Cz	100	sociale	fascino	social	573.0	1	
s21_2018_nf	2	Cz	101	quantità	ingrandimento	quantity	601.0999999999999	1	
s21_2018_nf	2	Cz	102	sociale	patto	social	644.0	1	
s21_2018_nf	2	Cz	103	quantità	quintale	quantity	564.8000000000002	1	
s21_2018_nf	2	Cz	104	quantità	tonnellata	quantity	648.7000000000003	1	
s21_2018_nf	2	Cz	105	quantità	grossezza	quantity	673.5999999999999	1	
s21_2018_nf	2	Cz	106	quantità	immensità	quantity	673.5999999999999	1	
s21_2018_nf	2	Cz	107	sociale	grandezza	quantity	625.5999999999999	1	
s21_2018_nf	2	Cz	108	quantità	grandezza	quantity	547.0999999999999	1	
s21_2018_nf	2	Cz	109	quantità	espansione	quantity	840.0	1	
s21_2018_nf	2	Cz	110	sociale	riduzione	quantity	649.4000000000001	1	
s21_2018_nf	2	Cz	111	quantità	venerazione	social	642.0	1	
s21_2018_nf	2	Cz	112	sociale	socievolezza	social	635.4000000000001	1	
s14_2018_lr	3	rSATL	1	quantità	sfacciataggine	social	844.7000000000003	1	
s14_2018_lr	3	rSATL	2	sociale	immensità	quantity	549.3000000000002	1	
s14_2018_lr	3	rSATL	3	quantità	patto	social	554.2000000000003	1	
s14_2018_lr	3	rSATL	4	quantità	nomea	social	519.0	1	
s14_2018_lr	3	rSATL	5	quantità	allargamento	quantity	604.9000000000001	1	
s14_2018_lr	3	rSATL	6	sociale	altruismo	social	559.7000000000003	1	
s14_2018_lr	3	rSATL	7	quantità	dispetto	social	555.9000000000001	1	
s14_2018_lr	3	rSATL	8	quantità	grossezza	quantity	520.5	1	
s14_2018_lr	3	rSATL	9	quantità	carico	quantity	710.5999999999999	1	
s14_2018_lr	3	rSATL	10	sociale	servitù	social	548.8000000000002	1	
s14_2018_lr	3	rSATL	11	quantità	porzione	quantity	569.5	-1	
s14_2018_lr	3	rSATL	12	quantità	addizione	quantity	573.5	1	
s14_2018_lr	3	rSATL	13	sociale	allargamento	quantity	497.5999999999999	1	
s14_2018_lr	3	rSATL	14	quantità	competizione	social	560.5	1	
s14_2018_lr	3	rSATL	15	sociale	penuria	quantity	540.4000000000001	-1	
s14_2018_lr	3	rSATL	16	quantità	dissenso	social	649.8000000000002	1	
s14_2018_lr	3	rSATL	17	quantità	penuria	quantity	578.5999999999999	-1	
s14_2018_lr	3	rSATL	18	quantità	riduzione	quantity	574.0999999999999	1	
s14_2018_lr	3	rSATL	19	sociale	competizione	social	530.0999999999999	1	
s14_2018_lr	3	rSATL	20	quantità	stazza	quantity	527.5	-1	
s14_2018_lr	3	rSATL	21	sociale	infamia	social	501.0	1	
s14_2018_lr	3	rSATL	22	quantità	massa	quantity	435.8000000000002	1	
s14_2018_lr	3	rSATL	23	sociale	estensione	quantity	509.0999999999999	1	
s14_2018_lr	3	rSATL	24	quantità	espansione	quantity	547.0999999999999	1	
s14_2018_lr	3	rSATL	25	sociale	accrescimento	quantity	536.0	1	
s14_2018_lr	3	rSATL	26	sociale	dissenso	social	677.4000000000001	1	
s14_2018_lr	3	rSATL	27	quantità	carenza	quantity	612.7000000000003	-1	
s14_2018_lr	3	rSATL	28	sociale	dilatazione	quantity	702.9000000000001	1	
s14_2018_lr	3	rSATL	29	quantità	grandezza	quantity	509.5	1	
s14_2018_lr	3	rSATL	30	quantità	accrescimento	quantity	587.5999999999999	1	
s14_2018_lr	3	rSATL	31	sociale	gentilezza	social	703.0	1	
s14_2018_lr	3	rSATL	32	quantità	decremento	quantity	997.9000000000001	1	
s14_2018_lr	3	rSATL	33	sociale	dispetto	social	696.5	1	
s14_2018_lr	3	rSATL	34	quantità	notorietà	social	615.3000000000002	1	
s14_2018_lr	3	rSATL	35	sociale	emarginazione	social	753.4000000000001	1	
s14_2018_lr	3	rSATL	36	quantità	dilatazione	quantity	558.3000000000002	1	
s14_2018_lr	3	rSATL	37	quantità	enormità	quantity	530.9000000000001	-1	
s14_2018_lr	3	rSATL	38	quantità	tradizione	social	544.3000000000002	1	
s14_2018_lr	3	rSATL	39	quantità	scherzo	social	549.2000000000003	1	
s14_2018_lr	3	rSATL	40	quantità	immensità	quantity	593.8000000000002	1	
s14_2018_lr	3	rSATL	41	sociale	cospirazione	social	620.7000000000003	1	
s14_2018_lr	3	rSATL	42	sociale	nomea	social	686.5999999999999	1	
s14_2018_lr	3	rSATL	43	sociale	grossezza	quantity	550.0	1	
s14_2018_lr	3	rSATL	44	quantità	cumulo	quantity	578.9000000000001	1	
s14_2018_lr	3	rSATL	45	sociale	decremento	quantity	734.2000000000003	1	
s14_2018_lr	3	rSATL	46	quantità	lusinga	social	563.5999999999999	1	
s14_2018_lr	3	rSATL	47	sociale	diffamazione	social	823.7000000000003	1	
s14_2018_lr	3	rSATL	48	sociale	tradizione	social	513.9000000000001	1	
s14_2018_lr	3	rSATL	49	sociale	patto	social	576.0	1	
s14_2018_lr	3	rSATL	50	sociale	carenza	quantity	787.3000000000002	1	
s14_2018_lr	3	rSATL	51	quantità	complotto	social	494.7000000000003	1	
s14_2018_lr	3	rSATL	52	sociale	venerazione	social	525.4000000000001	1	
s14_2018_lr	3	rSATL	53	quantità	fascino	social	467.7000000000003	1	
s14_2018_lr	3	rSATL	54	sociale	cumulo	quantity	651.5999999999999	1	
s14_2018_lr	3	rSATL	55	quantità	infamia	social	492.5	1	
s14_2018_lr	3	rSATL	56	sociale	incremento	quantity	571.0999999999999	1	
s14_2018_lr	3	rSATL	57	sociale	accumulo	quantity	647.2000000000003	1	
s14_2018_lr	3	rSATL	58	quantità	estensione	quantity	528.0999999999999	-1	
s14_2018_lr	3	rSATL	59	sociale	riduzione	quantity	637.5	1	
s14_2018_lr	3	rSATL	60	quantità	plebe	social	550.8000000000002	1	
s14_2018_lr	3	rSATL	61	sociale	tonnellata	quantity	571.5999999999999	1	
s14_2018_lr	3	rSATL	62	quantità	incremento	quantity	567.5999999999999	1	
s14_2018_lr	3	rSATL	63	sociale	mole	quantity	651.7000000000003	1	
s14_2018_lr	3	rSATL	64	sociale	relazione	social	668.4000000000001	1	
s14_2018_lr	3	rSATL	65	sociale	porzione	quantity	1124.6	-1	
s14_2018_lr	3	rSATL	66	quantità	rivalità	social	578.5999999999999	1	
s14_2018_lr	3	rSATL	67	sociale	offesa	social	582.0999999999999	1	
s14_2018_lr	3	rSATL	68	sociale	scherzo	social	513.4000000000001	1	
s14_2018_lr	3	rSATL	69	quantità	etnia	social	511.5	1	
s14_2018_lr	3	rSATL	70	sociale	complotto	social	509.7000000000003	1	
s14_2018_lr	3	rSATL	71	quantità	venerazione	social	459.8000000000002	1	
s14_2018_lr	3	rSATL	72	quantità	ingrandimento	quantity	539.9000000000001	1	
s14_2018_lr	3	rSATL	73	sociale	rivalità	social	625.2000000000003	1	
s14_2018_lr	3	rSATL	74	sociale	socievolezza	social	555.2000000000003	1	
s14_2018_lr	3	rSATL	75	sociale	addizione	quantity	792.0	1	
s14_2018_lr	3	rSATL	76	quantità	servitù	social	491.5	1	
s14_2018_lr	3	rSATL	77	quantità	cospirazione	social	538.8000000000002	1	
s14_2018_lr	3	rSATL	78	quantità	mole	quantity	624.4000000000001	1	
s14_2018_lr	3	rSATL	79	sociale	espansione	quantity	738.4000000000001	1	
s14_2018_lr	3	rSATL	80	sociale	frazione	quantity	735.9000000000001	1	
s14_2018_lr	3	rSATL	81	quantità	offesa	social	541.2000000000003	1	
s14_2018_lr	3	rSATL	82	quantità	catasta	quantity	506.5999999999999	-1	
s14_2018_lr	3	rSATL	83	sociale	sudditanza	social	609.4000000000001	1	
s14_2018_lr	3	rSATL	84	sociale	diminuzione	quantity	699.5	1	
s14_2018_lr	3	rSATL	85	quantità	quintale	quantity	674.2000000000003	1	
s14_2018_lr	3	rSATL	86	sociale	alleanza	social	666.4000000000001	1	
s14_2018_lr	3	rSATL	87	quantità	diffamazione	social	674.3000000000002	1	
s14_2018_lr	3	rSATL	88	quantità	sudditanza	social	506.4000000000001	1	
s14_2018_lr	3	rSATL	89	quantità	altruismo	social	577.0999999999999	1	
s14_2018_lr	3	rSATL	90	sociale	sfacciataggine	social	860.5999999999999	1	
s14_2018_lr	3	rSATL	91	sociale	plebe	social	548.5999999999999	1	
s14_2018_lr	3	rSATL	92	sociale	enormità	quantity	545.4000000000001	1	
s14_2018_lr	3	rSATL	93	sociale	catasta	quantity	494.0999999999999	-1	
s14_2018_lr	3	rSATL	94	sociale	notorietà	social	645.0	1	
s14_2018_lr	3	rSATL	95	sociale	ingrandimento	quantity	589.8000000000002	1	
s14_2018_lr	3	rSATL	96	sociale	etnia	social	457.2000000000003	1	
s14_2018_lr	3	rSATL	97	quantità	diminuzione	quantity	689.8000000000002	1	
s14_2018_lr	3	rSATL	98	sociale	lusinga	social	465.2000000000003	1	
s14_2018_lr	3	rSATL	99	sociale	grandezza	quantity	449.4000000000001	1	
s14_2018_lr	3	rSATL	100	sociale	fascino	social	450.2000000000003	1	
s14_2018_lr	3	rSATL	101	quantità	gentilezza	social	682.8000000000002	1	
s14_2018_lr	3	rSATL	102	quantità	relazione	social	506.3000000000002	1	
s14_2018_lr	3	rSATL	103	quantità	socievolezza	social	513.0999999999999	1	
s14_2018_lr	3	rSATL	104	quantità	frazione	quantity	455.0999999999999	-1	
s14_2018_lr	3	rSATL	105	sociale	quintale	quantity	647.9000000000001	1	
s14_2018_lr	3	rSATL	106	quantità	emarginazione	social	520.5	1	
s14_2018_lr	3	rSATL	107	quantità	tonnellata	quantity	566.7000000000003	1	
s14_2018_lr	3	rSATL	108	sociale	massa	quantity	610.7000000000003	1	
s14_2018_lr	3	rSATL	109	sociale	stazza	quantity	620.8000000000002	1	
s14_2018_lr	3	rSATL	110	sociale	carico	quantity	711.0	1	
s14_2018_lr	3	rSATL	111	quantità	alleanza	social	532.9000000000001	1	
s14_2018_lr	3	rSATL	112	quantità	accumulo	quantity	658.3000000000002	1	
s07_2018_am	2	rSATL	1	sociale	offesa	social	922.3000000000002	1	
s07_2018_am	2	rSATL	2	quantità	venerazione	social	776.4000000000001	1	
s07_2018_am	2	rSATL	3	quantità	immensità	quantity	595.7000000000003	1	
s07_2018_am	2	rSATL	4	sociale	dissenso	social	678.5999999999999	1	
s07_2018_am	2	rSATL	5	sociale	mole	quantity	582.0	1	
s07_2018_am	2	rSATL	6	quantità	porzione	quantity	577.3000000000002	1	
s07_2018_am	2	rSATL	7	sociale	ingrandimento	quantity	572.7000000000003	1	
s07_2018_am	2	rSATL	8	sociale	socievolezza	social	648.8000000000002	1	
s07_2018_am	2	rSATL	9	quantità	tradizione	social	785.5	1	
s07_2018_am	2	rSATL	10	quantità	penuria	quantity	637.0999999999999	1	
s07_2018_am	2	rSATL	11	quantità	sfacciataggine	social	646.4000000000001	1	
s07_2018_am	2	rSATL	12	sociale	rivalità	social	711.3000000000002	1	
s07_2018_am	2	rSATL	13	sociale	etnia	social	693.2000000000003	1	
s07_2018_am	2	rSATL	14	sociale	espansione	quantity	636.0	1	
s07_2018_am	2	rSATL	15	quantità	carico	quantity	685.5	1	
s07_2018_am	2	rSATL	16	quantità	alleanza	social	589.0	1	
s07_2018_am	2	rSATL	17	quantità	gentilezza	social	760.2000000000003	1	
s07_2018_am	2	rSATL	18	quantità	espansione	quantity	724.3000000000002	1	
s07_2018_am	2	rSATL	19	quantità	rivalità	social	618.4000000000001	1	
s07_2018_am	2	rSATL	20	sociale	catasta	quantity	620.5999999999999	1	
s07_2018_am	2	rSATL	21	sociale	diminuzione	quantity	566.7000000000003	1	
s07_2018_am	2	rSATL	22	sociale	stazza	quantity	618.8000000000002	1	
s07_2018_am	2	rSATL	23	quantità	patto	social	684.9000000000001	1	
s07_2018_am	2	rSATL	24	sociale	riduzione	quantity	548.3000000000002	1	
s07_2018_am	2	rSATL	25	sociale	accrescimento	quantity	577.0	1	
s07_2018_am	2	rSATL	26	sociale	competizione	social	700.5	1	
s07_2018_am	2	rSATL	27	quantità	cospirazione	social	1067.2000000000003	1	
s07_2018_am	2	rSATL	28	quantità	tonnellata	quantity	571.3000000000002	1	
s07_2018_am	2	rSATL	29	sociale	sudditanza	social	727.4000000000001	1	
s07_2018_am	2	rSATL	30	quantità	mole	quantity	516.7000000000003	1	
s07_2018_am	2	rSATL	31	sociale	allargamento	quantity	498.8000000000002	1	
s07_2018_am	2	rSATL	32	quantità	dispetto	social	561.7000000000003	1	
s07_2018_am	2	rSATL	33	sociale	infamia	social	661.5999999999999	1	
s07_2018_am	2	rSATL	34	sociale	addizione	quantity	589.8000000000002	1	
s07_2018_am	2	rSATL	35	quantità	relazione	social	641.2000000000003	1	
s07_2018_am	2	rSATL	36	quantità	socievolezza	social	658.7000000000003	1	
s07_2018_am	2	rSATL	37	quantità	offesa	social	579.4000000000001	1	
s07_2018_am	2	rSATL	38	quantità	competizione	social	710.8000000000002	1	
s07_2018_am	2	rSATL	39	quantità	grossezza	quantity	572.9000000000001	1	
s07_2018_am	2	rSATL	40	quantità	decremento	quantity	616.9000000000001	1	
s07_2018_am	2	rSATL	41	quantità	dissenso	social	507.0	1	
s07_2018_am	2	rSATL	42	sociale	carico	quantity	625.8000000000002	1	
s07_2018_am	2	rSATL	43	quantità	addizione	quantity	523.3000000000002	1	
s07_2018_am	2	rSATL	44	sociale	notorietà	social	737.2000000000003	1	
s07_2018_am	2	rSATL	45	quantità	etnia	social	574.8000000000002	1	
s07_2018_am	2	rSATL	46	sociale	incremento	quantity	546.8000000000002	1	
s07_2018_am	2	rSATL	47	sociale	decremento	quantity	495.5	1	
s07_2018_am	2	rSATL	48	sociale	complotto	social	566.2000000000003	1	
s07_2018_am	2	rSATL	49	quantità	notorietà	social	538.3000000000002	1	
s07_2018_am	2	rSATL	50	sociale	alleanza	social	527.7000000000003	1	
s07_2018_am	2	rSATL	51	sociale	sfacciataggine	social	1205.2000000000003	1	
s07_2018_am	2	rSATL	52	quantità	enormità	quantity	767.9000000000001	1	
s07_2018_am	2	rSATL	53	quantità	diffamazione	social	636.0	1	
s07_2018_am	2	rSATL	54	quantità	dilatazione	quantity	621.5	1	
s07_2018_am	2	rSATL	55	quantità	emarginazione	social	703.5	1	
s07_2018_am	2	rSATL	56	sociale	emarginazione	social	566.2000000000003	1	
s07_2018_am	2	rSATL	57	sociale	cumulo	quantity	506.3000000000002	1	
s07_2018_am	2	rSATL	58	quantità	frazione	quantity	545.0999999999999	1	
s07_2018_am	2	rSATL	59	quantità	scherzo	social	606.0	1	
s07_2018_am	2	rSATL	60	quantità	accrescimento	quantity	632.7000000000003	1	
s07_2018_am	2	rSATL	61	sociale	venerazione	social	578.0999999999999	1	
s07_2018_am	2	rSATL	62	sociale	penuria	quantity	613.4000000000001	1	
s07_2018_am	2	rSATL	63	sociale	gentilezza	social	551.5	1	
s07_2018_am	2	rSATL	64	quantità	accumulo	quantity	596.4000000000001	1	
s07_2018_am	2	rSATL	65	quantità	cumulo	quantity	495.0999999999999	1	
s07_2018_am	2	rSATL	66	quantità	ingrandimento	quantity	621.7000000000003	1	
s07_2018_am	2	rSATL	67	quantità	sudditanza	social	583.9000000000001	1	
s07_2018_am	2	rSATL	68	quantità	altruismo	social	635.3000000000002	1	
s07_2018_am	2	rSATL	69	sociale	tradizione	social	684.7000000000003	1	
s07_2018_am	2	rSATL	70	quantità	plebe	social	852.2000000000003	1	
s07_2018_am	2	rSATL	71	quantità	diminuzione	quantity	501.0	1	
s07_2018_am	2	rSATL	72	sociale	accumulo	quantity	595.5999999999999	1	
s07_2018_am	2	rSATL	73	sociale	servitù	social	598.5	1	
s07_2018_am	2	rSATL	74	sociale	frazione	quantity	705.0999999999999	1	
s07_2018_am	2	rSATL	75	sociale	enormità	quantity	584.0	1	
s07_2018_am	2	rSATL	76	quantità	lusinga	social	643.2000000000003	1	
s07_2018_am	2	rSATL	77	quantità	estensione	quantity	540.0	1	
s07_2018_am	2	rSATL	78	sociale	porzione	quantity	553.5999999999999	1	
s07_2018_am	2	rSATL	79	sociale	grandezza	quantity	502.3000000000002	1	
s07_2018_am	2	rSATL	80	sociale	grossezza	quantity	589.0999999999999	1	
s07_2018_am	2	rSATL	81	quantità	stazza	quantity	568.4000000000001	1	
s07_2018_am	2	rSATL	82	quantità	fascino	social	620.4000000000001	1	
s07_2018_am	2	rSATL	83	quantità	nomea	social	782.5999999999999	1	
s07_2018_am	2	rSATL	84	sociale	estensione	quantity	641.9000000000001	1	
s07_2018_am	2	rSATL	85	quantità	quintale	quantity	627.5	1	
s07_2018_am	2	rSATL	86	sociale	nomea	social	644.9000000000001	1	
s07_2018_am	2	rSATL	87	quantità	complotto	social	565.5999999999999	1	
s07_2018_am	2	rSATL	88	sociale	cospirazione	social	585.5999999999999	1	
s07_2018_am	2	rSATL	89	quantità	riduzione	quantity	581.0	1	
s07_2018_am	2	rSATL	90	quantità	infamia	social	616.5	1	
s07_2018_am	2	rSATL	91	sociale	immensità	quantity	578.5	1	
s07_2018_am	2	rSATL	92	quantità	incremento	quantity	558.0999999999999	1	
s07_2018_am	2	rSATL	93	quantità	carenza	quantity	786.7000000000003	1	
s07_2018_am	2	rSATL	94	quantità	grandezza	quantity	550.2000000000003	1	
s07_2018_am	2	rSATL	95	sociale	carenza	quantity	570.8000000000002	1	
s07_2018_am	2	rSATL	96	sociale	tonnellata	quantity	486.9000000000001	1	
s07_2018_am	2	rSATL	97	quantità	allargamento	quantity	510.5	1	
s07_2018_am	2	rSATL	98	sociale	plebe	social	540.4000000000001	1	
s07_2018_am	2	rSATL	99	sociale	patto	social	578.0	1	
s07_2018_am	2	rSATL	100	sociale	altruismo	social	621.4000000000001	1	
s07_2018_am	2	rSATL	101	sociale	massa	quantity	479.3000000000002	1	
s07_2018_am	2	rSATL	102	sociale	fascino	social	510.9000000000001	1	
s07_2018_am	2	rSATL	103	sociale	dispetto	social	533.0	1	
s07_2018_am	2	rSATL	104	quantità	massa	quantity	506.4000000000001	-1	
s07_2018_am	2	rSATL	105	sociale	scherzo	social	1017.0	1	
s07_2018_am	2	rSATL	106	sociale	dilatazione	quantity	1219.1	1	
s07_2018_am	2	rSATL	107	quantità	servitù	social	621.3000000000002	1	
s07_2018_am	2	rSATL	108	sociale	diffamazione	social	727.3000000000002	1	
s07_2018_am	2	rSATL	109	sociale	quintale	quantity	588.8000000000002	1	
s07_2018_am	2	rSATL	110	sociale	lusinga	social	616.3000000000002	1	
s07_2018_am	2	rSATL	111	quantità	catasta	quantity	1018.2000000000003	1	
s07_2018_am	2	rSATL	112	sociale	relazione	social	1172.3000000000002	1	
s31_2018_aa	1	Cz	1	sociale	plebe	social	525.5999999999999	1	
s31_2018_aa	1	Cz	2	quantità	dispetto	social	498.8000000000002	1	
s31_2018_aa	1	Cz	3	quantità	carenza	quantity	329.7000000000003	-1	
s31_2018_aa	1	Cz	4	sociale	cumulo	quantity	703.0999999999999	-1	
s31_2018_aa	1	Cz	5	quantità	nomea	social	725.8000000000002	1	
s31_2018_aa	1	Cz	6	sociale	accumulo	quantity	579.2000000000003	1	
s31_2018_aa	1	Cz	7	sociale	massa	quantity	390.7000000000003	-1	
s31_2018_aa	1	Cz	8	sociale	altruismo	social	378.0	1	
s31_2018_aa	1	Cz	9	quantità	dilatazione	quantity	525.4000000000001	1	
s31_2018_aa	1	Cz	10	quantità	offesa	social	339.5999999999999	1	
s31_2018_aa	1	Cz	11	sociale	diminuzione	quantity	392.9000000000001	-1	
s31_2018_aa	1	Cz	12	quantità	relazione	social	395.5999999999999	1	
s31_2018_aa	1	Cz	13	sociale	grandezza	quantity	518.4000000000001	1	
s31_2018_aa	1	Cz	14	sociale	servitù	social	388.5	1	
s31_2018_aa	1	Cz	15	quantità	sfacciataggine	social	312.0	1	
s31_2018_aa	1	Cz	16	quantità	diminuzione	quantity	382.0999999999999	-1	
s31_2018_aa	1	Cz	17	quantità	scherzo	social	681.5	1	
s31_2018_aa	1	Cz	18	quantità	fascino	social	448.9000000000001	1	
s31_2018_aa	1	Cz	19	quantità	cumulo	quantity	513.7000000000003	-1	
s31_2018_aa	1	Cz	20	sociale	catasta	quantity	455.8000000000002	-1	
s31_2018_aa	1	Cz	21	sociale	riduzione	quantity	672.4000000000001	1	
s31_2018_aa	1	Cz	22	sociale	notorietà	social	448.5999999999999	1	
s31_2018_aa	1	Cz	23	quantità	carico	quantity	497.2000000000003	-1	
s31_2018_aa	1	Cz	24	sociale	stazza	quantity	504.0999999999999	-1	
s31_2018_aa	1	Cz	25	quantità	porzione	quantity	606.7000000000003	-1	
s31_2018_aa	1	Cz	26	sociale	sfacciataggine	social	665.5	1	
s31_2018_aa	1	Cz	27	sociale	lusinga	social	481.5	1	
s31_2018_aa	1	Cz	28	quantità	altruismo	social	577.0	1	
s31_2018_aa	1	Cz	29	quantità	frazione	quantity	588.3000000000002	1	
s31_2018_aa	1	Cz	30	quantità	grossezza	quantity	1199.9	1	
s31_2018_aa	1	Cz	31	quantità	competizione	social	506.5	1	
s31_2018_aa	1	Cz	32	quantità	diffamazione	social	529.3000000000002	1	
s31_2018_aa	1	Cz	33	quantità	decremento	quantity	486.8000000000002	-1	
s31_2018_aa	1	Cz	34	sociale	tonnellata	quantity	558.2000000000003	-1	
s31_2018_aa	1	Cz	35	sociale	dissenso	social	610.8000000000002	1	
s31_2018_aa	1	Cz	36	sociale	dilatazione	quantity	741.0999999999999	-1	
s31_2018_aa	1	Cz	37	quantità	riduzione	quantity	570.3000000000002	1	
s31_2018_aa	1	Cz	38	quantità	plebe	social	566.5999999999999	1	
s31_2018_aa	1	Cz	39	quantità	emarginazione	social	562.5999999999999	1	
s31_2018_aa	1	Cz	40	quantità	enormità	quantity	630.7000000000003	1	
s31_2018_aa	1	Cz	41	quantità	estensione	quantity	776.0	1	
s31_2018_aa	1	Cz	42	sociale	penuria	quantity	499.4000000000001	-1	
s31_2018_aa	1	Cz	43	quantità	cospirazione	social	602.3000000000002	1	
s31_2018_aa	1	Cz	44	quantità	massa	quantity	484.9000000000001	-1	
s31_2018_aa	1	Cz	45	sociale	cospirazione	social	572.5	1	
s31_2018_aa	1	Cz	46	sociale	etnia	social	368.5999999999999	1	
s31_2018_aa	1	Cz	47	quantità	quintale	quantity	556.5999999999999	1	
s31_2018_aa	1	Cz	48	sociale	gentilezza	social	457.4000000000001	1	
s31_2018_aa	1	Cz	49	sociale	mole	quantity	586.0999999999999	-1	
s31_2018_aa	1	Cz	50	quantità	allargamento	quantity	725.4000000000001	1	
s31_2018_aa	1	Cz	51	sociale	socievolezza	social	531.5999999999999	1	
s31_2018_aa	1	Cz	52	quantità	infamia	social	576.9000000000001	1	
s31_2018_aa	1	Cz	53	quantità	patto	social	380.4000000000001	1	
s31_2018_aa	1	Cz	54	sociale	allargamento	quantity	583.9000000000001	-1	
s31_2018_aa	1	Cz	55	quantità	alleanza	social	563.0999999999999	1	
s31_2018_aa	1	Cz	56	quantità	incremento	quantity	631.3000000000002	1	
s31_2018_aa	1	Cz	57	quantità	stazza	quantity	512.8000000000002	-1	
s31_2018_aa	1	Cz	58	sociale	emarginazione	social	518.8000000000002	1	
s31_2018_aa	1	Cz	59	sociale	competizione	social	428.9000000000001	1	
s31_2018_aa	1	Cz	60	sociale	patto	social	414.3000000000002	1	
s31_2018_aa	1	Cz	61	sociale	quintale	quantity	232.30000000000018	-1	
s31_2018_aa	1	Cz	62	sociale	infamia	social	529.7000000000003	1	
s31_2018_aa	1	Cz	63	quantità	penuria	quantity	567.2000000000003	-1	
s31_2018_aa	1	Cz	64	sociale	sudditanza	social	643.3000000000002	1	
s31_2018_aa	1	Cz	65	sociale	grossezza	quantity	764.0999999999999	1	
s31_2018_aa	1	Cz	66	quantità	socievolezza	social	504.0	1	
s31_2018_aa	1	Cz	67	sociale	relazione	social	718.7000000000003	1	
s31_2018_aa	1	Cz	68	quantità	tradizione	social	493.0	1	
s31_2018_aa	1	Cz	69	sociale	nomea	social	563.7000000000003	1	
s31_2018_aa	1	Cz	70	sociale	incremento	quantity	743.8000000000002	1	
s31_2018_aa	1	Cz	71	quantità	immensità	quantity	724.4000000000001	1	
s31_2018_aa	1	Cz	72	quantità	catasta	quantity	554.5	-1	
s31_2018_aa	1	Cz	73	quantità	lusinga	social	551.4000000000001	1	
s31_2018_aa	1	Cz	74	quantità	mole	quantity	604.0999999999999	1	
s31_2018_aa	1	Cz	75	quantità	sudditanza	social	486.8000000000002	1	
s31_2018_aa	1	Cz	76	quantità	espansione	quantity	622.2000000000003	1	
s31_2018_aa	1	Cz	77	quantità	gentilezza	social	496.4000000000001	1	
s31_2018_aa	1	Cz	78	quantità	venerazione	social	415.0999999999999	1	
s31_2018_aa	1	Cz	79	sociale	dispetto	social	537.2000000000003	1	
s31_2018_aa	1	Cz	80	sociale	alleanza	social	662.5	1	
s31_2018_aa	1	Cz	81	sociale	accrescimento	quantity	502.5999999999999	-1	
s31_2018_aa	1	Cz	82	sociale	scherzo	social	461.3000000000002	1	
s31_2018_aa	1	Cz	83	quantità	rivalità	social	613.4000000000001	1	
s31_2018_aa	1	Cz	84	quantità	ingrandimento	quantity	615.5999999999999	1	
s31_2018_aa	1	Cz	85	quantità	etnia	social	585.5999999999999	1	
s31_2018_aa	1	Cz	86	quantità	dissenso	social	645.0999999999999	1	
s31_2018_aa	1	Cz	87	sociale	carico	quantity	677.8000000000002	1	
s31_2018_aa	1	Cz	88	sociale	porzione	quantity	493.0999999999999	-1	
s31_2018_aa	1	Cz	89	sociale	tradizione	social	707.9000000000001	1	
s31_2018_aa	1	Cz	90	sociale	carenza	quantity	610.8000000000002	1	
s31_2018_aa	1	Cz	91	sociale	complotto	social	620.7000000000003	1	
s31_2018_aa	1	Cz	92	quantità	notorietà	social	510.9000000000001	1	
s31_2018_aa	1	Cz	93	quantità	complotto	social	596.9000000000001	1	
s31_2018_aa	1	Cz	94	quantità	accumulo	quantity	639.8000000000002	1	
s31_2018_aa	1	Cz	95	quantità	servitù	social	481.2000000000003	1	
s31_2018_aa	1	Cz	96	sociale	rivalità	social	504.5999999999999	1	
s31_2018_aa	1	Cz	97	sociale	enormità	quantity	367.3000000000002	-1	
s31_2018_aa	1	Cz	98	sociale	espansione	quantity	939.3000000000002	1	
s31_2018_aa	1	Cz	99	sociale	estensione	quantity	712.7000000000003	1	
s31_2018_aa	1	Cz	100	quantità	tonnellata	quantity	686.8000000000002	1	
s31_2018_aa	1	Cz	101	sociale	immensità	quantity	750.2000000000003	1	
s31_2018_aa	1	Cz	102	quantità	grandezza	quantity	547.0999999999999	-1	
s31_2018_aa	1	Cz	103	sociale	fascino	social	519.8000000000002	1	
s31_2018_aa	1	Cz	104	sociale	venerazione	social	621.9000000000001	1	
s31_2018_aa	1	Cz	105	quantità	accrescimento	quantity	560.0	1	
s31_2018_aa	1	Cz	106	sociale	frazione	quantity	500.0999999999999	-1	
s31_2018_aa	1	Cz	107	sociale	offesa	social	978.8000000000002	1	
s31_2018_aa	1	Cz	108	sociale	diffamazione	social	846.0999999999999	1	
s31_2018_aa	1	Cz	109	sociale	ingrandimento	quantity	558.9000000000001	1	
s31_2018_aa	1	Cz	110	sociale	decremento	quantity	714.9000000000001	1	
s31_2018_aa	1	Cz	111	quantità	addizione	quantity	497.0	1	
s31_2018_aa	1	Cz	112	sociale	addizione	quantity	487.8000000000002	1	
s27_2018_dt	3	rIPS	1	sociale	competizione	social	783.2000000000003	-1	
s27_2018_dt	3	rIPS	2	quantità	catasta	quantity	890.5	1	
s27_2018_dt	3	rIPS	3	quantità	allargamento	quantity	897.9000000000001	1	
s27_2018_dt	3	rIPS	4	quantità	enormità	quantity	688.8000000000002	1	
s27_2018_dt	3	rIPS	5	sociale	rivalità	social	688.0999999999999	1	
s27_2018_dt	3	rIPS	6	quantità	grandezza	quantity	639.5	1	
s27_2018_dt	3	rIPS	7	quantità	dissenso	social	689.0	1	
s27_2018_dt	3	rIPS	8	quantità	mole	quantity	752.3000000000002	1	
s27_2018_dt	3	rIPS	9	quantità	tradizione	social	749.2000000000003	1	
s27_2018_dt	3	rIPS	10	sociale	altruismo	social	601.8000000000002	1	
s27_2018_dt	3	rIPS	11	quantità	cumulo	quantity	772.5999999999999	1	
s27_2018_dt	3	rIPS	12	sociale	dissenso	social	864.7000000000003	1	
s27_2018_dt	3	rIPS	13	quantità	diminuzione	quantity	760.8000000000002	-1	
s27_2018_dt	3	rIPS	14	sociale	mole	quantity	628.9000000000001	1	
s27_2018_dt	3	rIPS	15	quantità	tonnellata	quantity	838.3000000000002	1	
s27_2018_dt	3	rIPS	16	quantità	penuria	quantity	631.7000000000003	-1	
s27_2018_dt	3	rIPS	17	quantità	dispetto	social	665.2000000000003	1	
s27_2018_dt	3	rIPS	18	quantità	riduzione	quantity	857.2000000000003	1	
s27_2018_dt	3	rIPS	19	quantità	nomea	social	954.0	1	
s27_2018_dt	3	rIPS	20	sociale	fascino	social	702.8000000000002	1	
s27_2018_dt	3	rIPS	21	sociale	estensione	quantity	773.5999999999999	1	
s27_2018_dt	3	rIPS	22	quantità	relazione	social	673.7000000000003	1	
s27_2018_dt	3	rIPS	23	sociale	massa	quantity	641.8000000000002	1	
s27_2018_dt	3	rIPS	24	quantità	estensione	quantity	603.2000000000003	-1	
s27_2018_dt	3	rIPS	25	quantità	massa	quantity	565.8000000000002	1	
s27_2018_dt	3	rIPS	26	quantità	incremento	quantity	810.0	1	
s27_2018_dt	3	rIPS	27	sociale	notorietà	social	995.9000000000001	1	
s27_2018_dt	3	rIPS	28	quantità	patto	social	574.8000000000002	1	
s27_2018_dt	3	rIPS	29	sociale	stazza	quantity	722.8000000000002	1	
s27_2018_dt	3	rIPS	30	quantità	complotto	social	649.0	1	
s27_2018_dt	3	rIPS	31	quantità	quintale	quantity	689.8000000000002	1	
s27_2018_dt	3	rIPS	32	sociale	dilatazione	quantity	769.0	1	
s27_2018_dt	3	rIPS	33	sociale	tradizione	social	637.0999999999999	1	
s27_2018_dt	3	rIPS	34	quantità	fascino	social	662.5	1	
s27_2018_dt	3	rIPS	35	quantità	rivalità	social	686.8000000000002	1	
s27_2018_dt	3	rIPS	36	sociale	complotto	social	686.2000000000003	1	
s27_2018_dt	3	rIPS	37	quantità	altruismo	social	597.5999999999999	1	
s27_2018_dt	3	rIPS	38	sociale	alleanza	social	664.2000000000003	1	
s27_2018_dt	3	rIPS	39	quantità	porzione	quantity	704.4000000000001	1	
s27_2018_dt	3	rIPS	40	sociale	dispetto	social	551.2000000000003	1	
s27_2018_dt	3	rIPS	41	sociale	catasta	quantity	787.8000000000002	1	
s27_2018_dt	3	rIPS	42	quantità	scherzo	social	655.3000000000002	1	
s27_2018_dt	3	rIPS	43	quantità	ingrandimento	quantity	895.9000000000001	1	
s27_2018_dt	3	rIPS	44	sociale	decremento	quantity	950.8000000000002	1	
s27_2018_dt	3	rIPS	45	sociale	sfacciataggine	social	1323.6	1	
s27_2018_dt	3	rIPS	46	sociale	offesa	social	681.7000000000003	1	
s27_2018_dt	3	rIPS	47	quantità	cospirazione	social	945.0	1	
s27_2018_dt	3	rIPS	48	quantità	carico	quantity	973.8000000000002	1	
s27_2018_dt	3	rIPS	49	sociale	diffamazione	social	914.0	1	
s27_2018_dt	3	rIPS	50	quantità	dilatazione	quantity	744.0	1	
s27_2018_dt	3	rIPS	51	sociale	penuria	quantity	788.8000000000002	1	
s27_2018_dt	3	rIPS	52	quantità	diffamazione	social	1008.0999999999999	1	
s27_2018_dt	3	rIPS	53	sociale	infamia	social	746.8000000000002	1	
s27_2018_dt	3	rIPS	54	sociale	frazione	quantity	703.7000000000003	1	
s27_2018_dt	3	rIPS	55	quantità	stazza	quantity	702.5	1	
s27_2018_dt	3	rIPS	56	sociale	plebe	social	653.0999999999999	1	
s27_2018_dt	3	rIPS	57	sociale	patto	social	669.8000000000002	1	
s27_2018_dt	3	rIPS	58	quantità	alleanza	social	822.0999999999999	1	
s27_2018_dt	3	rIPS	59	quantità	notorietà	social	832.0	1	
s27_2018_dt	3	rIPS	60	sociale	carico	quantity	609.4000000000001	1	
s27_2018_dt	3	rIPS	61	sociale	grandezza	quantity	635.5	1	
s27_2018_dt	3	rIPS	62	sociale	enormità	quantity	749.0999999999999	1	
s27_2018_dt	3	rIPS	63	sociale	porzione	quantity	593.7000000000003	1	
s27_2018_dt	3	rIPS	64	sociale	allargamento	quantity	628.4000000000001	-1	
s27_2018_dt	3	rIPS	65	sociale	socievolezza	social	749.9000000000001	1	
s27_2018_dt	3	rIPS	66	sociale	lusinga	social	594.7000000000003	1	
s27_2018_dt	3	rIPS	67	sociale	quintale	quantity	653.3000000000002	1	
s27_2018_dt	3	rIPS	68	sociale	tonnellata	quantity	662.2000000000003	1	
s27_2018_dt	3	rIPS	69	sociale	venerazione	social	750.3000000000002	1	
s27_2018_dt	3	rIPS	70	quantità	emarginazione	social	898.9000000000001	1	
s27_2018_dt	3	rIPS	71	quantità	gentilezza	social	705.7000000000003	1	
s27_2018_dt	3	rIPS	72	quantità	immensità	quantity	880.5999999999999	-1	
s27_2018_dt	3	rIPS	73	quantità	venerazione	social	640.0	1	
s27_2018_dt	3	rIPS	74	sociale	accumulo	quantity	873.3000000000002	1	
s27_2018_dt	3	rIPS	75	quantità	lusinga	social	609.4000000000001	1	
s27_2018_dt	3	rIPS	76	sociale	scherzo	social	755.5999999999999	1	
s27_2018_dt	3	rIPS	77	sociale	cospirazione	social	680.2000000000003	1	
s27_2018_dt	3	rIPS	78	quantità	decremento	quantity	703.5999999999999	1	
s27_2018_dt	3	rIPS	79	quantità	competizione	social	958.5	1	
s27_2018_dt	3	rIPS	80	quantità	frazione	quantity	667.0999999999999	1	
s27_2018_dt	3	rIPS	81	quantità	servitù	social	699.3000000000002	1	
s27_2018_dt	3	rIPS	82	sociale	etnia	social	722.0999999999999	1	
s27_2018_dt	3	rIPS	83	sociale	immensità	quantity	744.0	-1	
s27_2018_dt	3	rIPS	84	sociale	nomea	social	660.9000000000001	1	
s27_2018_dt	3	rIPS	85	sociale	sudditanza	social	645.0	1	
s27_2018_dt	3	rIPS	86	sociale	addizione	quantity	1109.6	1	
s27_2018_dt	3	rIPS	87	quantità	addizione	quantity	811.9000000000001	1	
s27_2018_dt	3	rIPS	88	sociale	carenza	quantity	741.9000000000001	1	
s27_2018_dt	3	rIPS	89	quantità	offesa	social	763.4000000000001	1	
s27_2018_dt	3	rIPS	90	sociale	servitù	social	631.5	1	
s27_2018_dt	3	rIPS	91	quantità	socievolezza	social	1160.7000000000003	1	
s27_2018_dt	3	rIPS	92	quantità	carenza	quantity	884.8000000000002	1	
s27_2018_dt	3	rIPS	93	sociale	cumulo	quantity	756.2000000000003	1	
s27_2018_dt	3	rIPS	94	sociale	incremento	quantity	905.0	1	
s27_2018_dt	3	rIPS	95	quantità	infamia	social	679.9000000000001	1	
s27_2018_dt	3	rIPS	96	sociale	grossezza	quantity	903.3000000000002	-1	
s27_2018_dt	3	rIPS	97	quantità	sfacciataggine	social	1045.9	1	
s27_2018_dt	3	rIPS	98	sociale	riduzione	quantity	638.7000000000003	1	
s27_2018_dt	3	rIPS	99	quantità	accumulo	quantity	776.0999999999999	1	
s27_2018_dt	3	rIPS	100	quantità	plebe	social	651.5999999999999	1	
s27_2018_dt	3	rIPS	101	sociale	emarginazione	social	700.4000000000001	1	
s27_2018_dt	3	rIPS	102	sociale	ingrandimento	quantity	771.0999999999999	1	
s27_2018_dt	3	rIPS	103	sociale	gentilezza	social	671.2000000000003	1	
s27_2018_dt	3	rIPS	104	quantità	accrescimento	quantity	719.2000000000003	1	
s27_2018_dt	3	rIPS	105	sociale	relazione	social	645.4000000000001	1	
s27_2018_dt	3	rIPS	106	quantità	sudditanza	social	566.0	1	
s27_2018_dt	3	rIPS	107	quantità	espansione	quantity	746.2000000000003	-1	
s27_2018_dt	3	rIPS	108	sociale	accrescimento	quantity	1006.8000000000002	1	
s27_2018_dt	3	rIPS	109	quantità	etnia	social	633.5999999999999	1	
s27_2018_dt	3	rIPS	110	quantità	grossezza	quantity	651.0	-1	
s27_2018_dt	3	rIPS	111	sociale	diminuzione	quantity	643.8000000000002	1	
s27_2018_dt	3	rIPS	112	sociale	espansione	quantity	916.5	1	
s34_2018_ss	3	Cz	1	sociale	tonnellata	quantity	861.5999999999999	1	
s34_2018_ss	3	Cz	2	sociale	altruismo	social	829.7000000000003	1	
s34_2018_ss	3	Cz	3	quantità	riduzione	quantity	695.3000000000002	1	
s34_2018_ss	3	Cz	4	quantità	competizione	social	813.9000000000001	1	
s34_2018_ss	3	Cz	5	quantità	tonnellata	quantity	648.0	1	
s34_2018_ss	3	Cz	6	quantità	cospirazione	social	656.9000000000001	1	
s34_2018_ss	3	Cz	7	sociale	alleanza	social	793.5999999999999	1	
s34_2018_ss	3	Cz	8	quantità	venerazione	social	1060.4	1	
s34_2018_ss	3	Cz	9	sociale	tradizione	social	828.5	1	
s34_2018_ss	3	Cz	10	sociale	ingrandimento	quantity	1149.9	1	
s34_2018_ss	3	Cz	11	quantità	plebe	social	746.5999999999999	1	
s34_2018_ss	3	Cz	12	sociale	grandezza	quantity	903.3000000000002	1	
s34_2018_ss	3	Cz	13	sociale	cumulo	quantity	1110.0	1	
s34_2018_ss	3	Cz	14	sociale	dilatazione	quantity	1388.1	1	
s34_2018_ss	3	Cz	15	sociale	diminuzione	quantity	799.5999999999999	1	
s34_2018_ss	3	Cz	16	sociale	lusinga	social	714.4000000000001	1	
s34_2018_ss	3	Cz	17	sociale	gentilezza	social	808.4000000000001	1	
s34_2018_ss	3	Cz	18	sociale	penuria	quantity	931.0999999999999	1	
s34_2018_ss	3	Cz	19	sociale	cospirazione	social	896.7000000000003	1	
s34_2018_ss	3	Cz	20	sociale	offesa	social	967.5	1	
s34_2018_ss	3	Cz	21	quantità	estensione	quantity	1163.5	1	
s34_2018_ss	3	Cz	22	quantità	complotto	social	1207.5	1	
s34_2018_ss	3	Cz	23	sociale	estensione	quantity	1050.3000000000002	1	
s34_2018_ss	3	Cz	24	quantità	notorietà	social	947.2000000000003	1	
s34_2018_ss	3	Cz	25	sociale	espansione	quantity	1039.9	1	
s34_2018_ss	3	Cz	26	sociale	dissenso	social	849.2000000000003	1	
s34_2018_ss	3	Cz	27	quantità	enormità	quantity	930.0999999999999	1	
s34_2018_ss	3	Cz	28	sociale	socievolezza	social	887.5	1	
s34_2018_ss	3	Cz	29	quantità	massa	quantity	862.8000000000002	1	
s34_2018_ss	3	Cz	30	sociale	infamia	social	750.9000000000001	1	
s34_2018_ss	3	Cz	31	quantità	sudditanza	social	811.8000000000002	1	
s34_2018_ss	3	Cz	32	sociale	scherzo	social	733.9000000000001	1	
s34_2018_ss	3	Cz	33	sociale	venerazione	social	891.2000000000003	1	
s34_2018_ss	3	Cz	34	sociale	rivalità	social	818.5999999999999	1	
s34_2018_ss	3	Cz	35	quantità	dissenso	social	812.7000000000003	1	
s34_2018_ss	3	Cz	36	quantità	cumulo	quantity	710.9000000000001	1	
s34_2018_ss	3	Cz	37	quantità	penuria	quantity	732.8000000000002	1	
s34_2018_ss	3	Cz	38	sociale	immensità	quantity	1194.4	-1	
s34_2018_ss	3	Cz	39	quantità	accrescimento	quantity	1005.0	1	
s34_2018_ss	3	Cz	40	sociale	fascino	social	727.9000000000001	1	
s34_2018_ss	3	Cz	41	sociale	quintale	quantity	837.3000000000002	1	
s34_2018_ss	3	Cz	42	sociale	servitù	social	966.8000000000002	1	
s34_2018_ss	3	Cz	43	sociale	enormità	quantity	922.7000000000003	1	
s34_2018_ss	3	Cz	44	quantità	altruismo	social	816.9000000000001	1	
s34_2018_ss	3	Cz	45	quantità	rivalità	social	714.9000000000001	1	
s34_2018_ss	3	Cz	46	quantità	accumulo	quantity	673.0	1	
s34_2018_ss	3	Cz	47	sociale	decremento	quantity	825.2000000000003	1	
s34_2018_ss	3	Cz	48	sociale	incremento	quantity	843.0999999999999	1	
s34_2018_ss	3	Cz	49	quantità	diffamazione	social	995.9000000000001	1	
s34_2018_ss	3	Cz	50	sociale	plebe	social	806.8000000000002	1	
s34_2018_ss	3	Cz	51	quantità	incremento	quantity	753.4000000000001	1	
s34_2018_ss	3	Cz	52	quantità	etnia	social	750.2000000000003	1	
s34_2018_ss	3	Cz	53	quantità	socievolezza	social	803.0	1	
s34_2018_ss	3	Cz	54	sociale	frazione	quantity	733.8000000000002	1	
s34_2018_ss	3	Cz	55	quantità	fascino	social	747.2000000000003	1	
s34_2018_ss	3	Cz	56	quantità	catasta	quantity	895.8000000000002	1	
s34_2018_ss	3	Cz	57	quantità	dispetto	social	742.5999999999999	1	
s34_2018_ss	3	Cz	58	quantità	relazione	social	867.5	1	
s34_2018_ss	3	Cz	59	sociale	porzione	quantity	1083.4	1	
s34_2018_ss	3	Cz	60	sociale	catasta	quantity	779.0	1	
s34_2018_ss	3	Cz	61	quantità	patto	social	654.4000000000001	1	
s34_2018_ss	3	Cz	62	sociale	grossezza	quantity	815.2000000000003	1	
s34_2018_ss	3	Cz	63	quantità	grossezza	quantity	649.0999999999999	1	
s34_2018_ss	3	Cz	64	sociale	accumulo	quantity	809.9000000000001	1	
s34_2018_ss	3	Cz	65	quantità	alleanza	social	795.9000000000001	1	
s34_2018_ss	3	Cz	66	quantità	lusinga	social	990.8000000000002	1	
s34_2018_ss	3	Cz	67	sociale	complotto	social	722.0999999999999	1	
s34_2018_ss	3	Cz	68	sociale	accrescimento	quantity	856.3000000000002	1	
s34_2018_ss	3	Cz	69	quantità	diminuzione	quantity	705.0999999999999	1	
s34_2018_ss	3	Cz	70	quantità	emarginazione	social	799.8000000000002	1	
s34_2018_ss	3	Cz	71	sociale	sudditanza	social	786.5	1	
s34_2018_ss	3	Cz	72	quantità	scherzo	social	678.0	1	
s34_2018_ss	3	Cz	73	sociale	diffamazione	social	765.4000000000001	1	
s34_2018_ss	3	Cz	74	sociale	allargamento	quantity	873.4000000000001	1	
s34_2018_ss	3	Cz	75	quantità	carico	quantity	761.5999999999999	1	
s34_2018_ss	3	Cz	76	quantità	porzione	quantity	781.5999999999999	1	
s34_2018_ss	3	Cz	77	quantità	stazza	quantity	697.0999999999999	1	
s34_2018_ss	3	Cz	78	quantità	sfacciataggine	social	919.7000000000003	1	
s34_2018_ss	3	Cz	79	quantità	quintale	quantity	742.0	1	
s34_2018_ss	3	Cz	80	sociale	riduzione	quantity	915.4000000000001	1	
s34_2018_ss	3	Cz	81	sociale	nomea	social	753.5	1	
s34_2018_ss	3	Cz	82	quantità	dilatazione	quantity	790.0999999999999	1	
s34_2018_ss	3	Cz	83	quantità	immensità	quantity	865.5	1	
s34_2018_ss	3	Cz	84	quantità	servitù	social	769.5999999999999	1	
s34_2018_ss	3	Cz	85	quantità	infamia	social	829.5999999999999	1	
s34_2018_ss	3	Cz	86	sociale	etnia	social	671.0999999999999	1	
s34_2018_ss	3	Cz	87	sociale	addizione	quantity	663.3000000000002	1	
s34_2018_ss	3	Cz	88	quantità	mole	quantity	631.4000000000001	1	
s34_2018_ss	3	Cz	89	sociale	relazione	social	720.8000000000002	1	
s34_2018_ss	3	Cz	90	sociale	massa	quantity	678.7000000000003	1	
s34_2018_ss	3	Cz	91	sociale	stazza	quantity	574.2000000000003	1	
s34_2018_ss	3	Cz	92	sociale	mole	quantity	594.2000000000003	1	
s34_2018_ss	3	Cz	93	sociale	carenza	quantity	1005.0999999999999	-1	
s34_2018_ss	3	Cz	94	sociale	patto	social	967.7000000000003	1	
s34_2018_ss	3	Cz	95	sociale	dispetto	social	708.0	1	
s34_2018_ss	3	Cz	96	quantità	gentilezza	social	706.7000000000003	1	
s34_2018_ss	3	Cz	97	sociale	sfacciataggine	social	761.3000000000002	1	
s34_2018_ss	3	Cz	98	quantità	tradizione	social	629.4000000000001	1	
s34_2018_ss	3	Cz	99	sociale	carico	quantity	655.0	1	
s34_2018_ss	3	Cz	100	sociale	notorietà	social	639.7000000000003	1	
s34_2018_ss	3	Cz	101	quantità	offesa	social	753.0	1	
s34_2018_ss	3	Cz	102	quantità	frazione	quantity	789.7000000000003	1	
s34_2018_ss	3	Cz	103	quantità	nomea	social	745.3000000000002	1	
s34_2018_ss	3	Cz	104	quantità	grandezza	quantity	814.0999999999999	1	
s34_2018_ss	3	Cz	105	quantità	carenza	quantity	880.0999999999999	1	
s34_2018_ss	3	Cz	106	quantità	espansione	quantity	943.5999999999999	1	
s34_2018_ss	3	Cz	107	quantità	addizione	quantity	676.3000000000002	1	
s34_2018_ss	3	Cz	108	quantità	allargamento	quantity	1171.7000000000003	1	
s34_2018_ss	3	Cz	109	quantità	decremento	quantity	791.8000000000002	1	
s34_2018_ss	3	Cz	110	sociale	emarginazione	social	795.2000000000003	1	
s34_2018_ss	3	Cz	111	sociale	competizione	social	918.0	1	
s34_2018_ss	3	Cz	112	quantità	ingrandimento	quantity	972.0999999999999	1	
s14_2018_lr	1	Cz	1	sociale	patto	social	643.7000000000003	1	
s14_2018_lr	1	Cz	2	sociale	ingrandimento	quantity	668.3000000000002	-1	
s14_2018_lr	1	Cz	3	quantità	carico	quantity	732.4000000000001	-1	
s14_2018_lr	1	Cz	4	quantità	patto	social	561.9000000000001	1	
s14_2018_lr	1	Cz	5	quantità	plebe	social	702.0	1	
s14_2018_lr	1	Cz	6	quantità	frazione	quantity	740.8000000000002	1	
s14_2018_lr	1	Cz	7	sociale	riduzione	quantity	594.0	-1	
s14_2018_lr	1	Cz	8	sociale	grossezza	quantity	1036.8000000000002	1	
s14_2018_lr	1	Cz	9	sociale	penuria	quantity	766.3000000000002	-1	
s14_2018_lr	1	Cz	10	sociale	enormità	quantity	826.4000000000001	1	
s14_2018_lr	1	Cz	11	sociale	massa	quantity	763.8000000000002	1	
s14_2018_lr	1	Cz	12	sociale	plebe	social	800.0	-1	
s14_2018_lr	1	Cz	13	sociale	dilatazione	quantity	890.7000000000003	1	
s14_2018_lr	1	Cz	14	quantità	rivalità	social	866.0	1	
s14_2018_lr	1	Cz	15	quantità	riduzione	quantity	954.2000000000003	1	
s14_2018_lr	1	Cz	16	sociale	mole	quantity	687.0	1	
s14_2018_lr	1	Cz	17	quantità	complotto	social	814.4000000000001	1	
s14_2018_lr	1	Cz	18	quantità	estensione	quantity	672.5	1	
s14_2018_lr	1	Cz	19	quantità	grossezza	quantity	616.4000000000001	1	
s14_2018_lr	1	Cz	20	quantità	dissenso	social	794.5999999999999	1	
s14_2018_lr	1	Cz	21	quantità	dispetto	social	821.4000000000001	1	
s14_2018_lr	1	Cz	22	quantità	infamia	social	575.4000000000001	1	
s14_2018_lr	1	Cz	23	sociale	sudditanza	social	771.5999999999999	1	
s14_2018_lr	1	Cz	24	quantità	espansione	quantity	759.7000000000003	1	
s14_2018_lr	1	Cz	25	quantità	allargamento	quantity	707.7000000000003	1	
s14_2018_lr	1	Cz	26	sociale	accumulo	quantity	690.5	1	
s14_2018_lr	1	Cz	27	quantità	diminuzione	quantity	705.8000000000002	1	
s14_2018_lr	1	Cz	28	sociale	diffamazione	social	712.5	1	
s14_2018_lr	1	Cz	29	sociale	tonnellata	quantity	702.5999999999999	1	
s14_2018_lr	1	Cz	30	quantità	accumulo	quantity	741.5	1	
s14_2018_lr	1	Cz	31	sociale	sfacciataggine	social	722.8000000000002	1	
s14_2018_lr	1	Cz	32	quantità	penuria	quantity	776.9000000000001	-1	
s14_2018_lr	1	Cz	33	sociale	catasta	quantity	716.4000000000001	-1	
s14_2018_lr	1	Cz	34	quantità	etnia	social	778.4000000000001	1	
s14_2018_lr	1	Cz	35	quantità	enormità	quantity	805.9000000000001	1	
s14_2018_lr	1	Cz	36	quantità	venerazione	social	816.7000000000003	1	
s14_2018_lr	1	Cz	37	sociale	fascino	social	618.7000000000003	1	
s14_2018_lr	1	Cz	38	quantità	decremento	quantity	1076.9	-1	
s14_2018_lr	1	Cz	39	quantità	dilatazione	quantity	788.2000000000003	1	
s14_2018_lr	1	Cz	40	sociale	carenza	quantity	967.5999999999999	1	
s14_2018_lr	1	Cz	41	quantità	cospirazione	social	819.7000000000003	1	
s14_2018_lr	1	Cz	42	sociale	frazione	quantity	701.9000000000001	1	
s14_2018_lr	1	Cz	43	quantità	cumulo	quantity	940.5999999999999	1	
s14_2018_lr	1	Cz	44	sociale	carico	quantity	1546.0	-1	
s14_2018_lr	1	Cz	45	quantità	mole	quantity	702.9000000000001	1	
s14_2018_lr	1	Cz	46	quantità	sudditanza	social	629.5999999999999	1	
s14_2018_lr	1	Cz	47	sociale	servitù	social	639.0	1	
s14_2018_lr	1	Cz	48	sociale	infamia	social	600.3000000000002	1	
s14_2018_lr	1	Cz	49	sociale	complotto	social	627.2000000000003	1	
s14_2018_lr	1	Cz	50	sociale	relazione	social	788.5999999999999	-1	
s14_2018_lr	1	Cz	51	sociale	socievolezza	social	744.0	1	
s14_2018_lr	1	Cz	52	sociale	notorietà	social	580.8000000000002	1	
s14_2018_lr	1	Cz	53	sociale	cospirazione	social	576.2000000000003	1	
s14_2018_lr	1	Cz	54	quantità	massa	quantity	515.5	1	
s14_2018_lr	1	Cz	55	quantità	fascino	social	553.7000000000003	1	
s14_2018_lr	1	Cz	56	quantità	gentilezza	social	590.4000000000001	1	
s14_2018_lr	1	Cz	57	sociale	alleanza	social	801.7000000000003	-1	
s14_2018_lr	1	Cz	58	sociale	competizione	social	676.5999999999999	1	
s14_2018_lr	1	Cz	59	quantità	immensità	quantity	851.9000000000001	1	
s14_2018_lr	1	Cz	60	quantità	carenza	quantity	572.8000000000002	1	
s14_2018_lr	1	Cz	61	quantità	porzione	quantity	984.7000000000003	1	
s14_2018_lr	1	Cz	62	sociale	porzione	quantity	644.3000000000002	1	
s14_2018_lr	1	Cz	63	quantità	scherzo	social	613.0	1	
s14_2018_lr	1	Cz	64	quantità	catasta	quantity	615.0	1	
s14_2018_lr	1	Cz	65	quantità	grandezza	quantity	753.0999999999999	1	
s14_2018_lr	1	Cz	66	quantità	diffamazione	social	766.0	1	
s14_2018_lr	1	Cz	67	sociale	gentilezza	social	689.9000000000001	1	
s14_2018_lr	1	Cz	68	quantità	relazione	social	545.5	1	
s14_2018_lr	1	Cz	69	sociale	lusinga	social	598.2000000000003	1	
s14_2018_lr	1	Cz	70	sociale	emarginazione	social	577.0	1	
s14_2018_lr	1	Cz	71	quantità	incremento	quantity	916.2000000000003	1	
s14_2018_lr	1	Cz	72	sociale	venerazione	social	610.5	1	
s14_2018_lr	1	Cz	73	quantità	quintale	quantity	836.5999999999999	1	
s14_2018_lr	1	Cz	74	sociale	rivalità	social	693.8000000000002	1	
s14_2018_lr	1	Cz	75	sociale	scherzo	social	524.5999999999999	1	
s14_2018_lr	1	Cz	76	sociale	nomea	social	826.7000000000003	-1	
s14_2018_lr	1	Cz	77	sociale	estensione	quantity	732.2000000000003	1	
s14_2018_lr	1	Cz	78	sociale	decremento	quantity	1409.6	1	
s14_2018_lr	1	Cz	79	quantità	accrescimento	quantity	755.5999999999999	1	
s14_2018_lr	1	Cz	80	sociale	offesa	social	608.4000000000001	1	
s14_2018_lr	1	Cz	81	sociale	altruismo	social	755.3000000000002	1	
s14_2018_lr	1	Cz	82	sociale	espansione	quantity	640.0	1	
s14_2018_lr	1	Cz	83	quantità	altruismo	social	609.3000000000002	1	
s14_2018_lr	1	Cz	84	sociale	dissenso	social	547.5	1	
s14_2018_lr	1	Cz	85	sociale	tradizione	social	512.2000000000003	1	
s14_2018_lr	1	Cz	86	quantità	ingrandimento	quantity	766.3000000000002	1	
s14_2018_lr	1	Cz	87	sociale	diminuzione	quantity	602.4000000000001	1	
s14_2018_lr	1	Cz	88	sociale	etnia	social	621.0	1	
s14_2018_lr	1	Cz	89	quantità	socievolezza	social	583.3000000000002	1	
s14_2018_lr	1	Cz	90	quantità	tonnellata	quantity	690.5999999999999	1	
s14_2018_lr	1	Cz	91	sociale	quintale	quantity	594.0999999999999	1	
s14_2018_lr	1	Cz	92	sociale	cumulo	quantity	868.7000000000003	1	
s14_2018_lr	1	Cz	93	sociale	accrescimento	quantity	892.8000000000002	1	
s14_2018_lr	1	Cz	94	quantità	stazza	quantity	955.7000000000003	1	
s14_2018_lr	1	Cz	95	sociale	grandezza	quantity	592.4000000000001	1	
s14_2018_lr	1	Cz	96	quantità	lusinga	social	531.2000000000003	1	
s14_2018_lr	1	Cz	97	quantità	emarginazione	social	616.5999999999999	1	
s14_2018_lr	1	Cz	98	quantità	alleanza	social	602.7000000000003	1	
s14_2018_lr	1	Cz	99	sociale	incremento	quantity	917.3000000000002	1	
s14_2018_lr	1	Cz	100	quantità	addizione	quantity	795.5	1	
s14_2018_lr	1	Cz	101	sociale	stazza	quantity	694.3000000000002	1	
s14_2018_lr	1	Cz	102	sociale	addizione	quantity	621.0	1	
s14_2018_lr	1	Cz	103	sociale	allargamento	quantity	559.0999999999999	1	
s14_2018_lr	1	Cz	104	quantità	sfacciataggine	social	651.2000000000003	1	
s14_2018_lr	1	Cz	105	quantità	servitù	social	587.8000000000002	1	
s14_2018_lr	1	Cz	106	quantità	notorietà	social	551.2000000000003	1	
s14_2018_lr	1	Cz	107	sociale	dispetto	social	644.0	1	
s14_2018_lr	1	Cz	108	quantità	tradizione	social	468.7000000000003	1	
s14_2018_lr	1	Cz	109	quantità	competizione	social	492.8000000000002	1	
s14_2018_lr	1	Cz	110	quantità	nomea	social	507.5	1	
s14_2018_lr	1	Cz	111	quantità	offesa	social	498.4000000000001	1	
s14_2018_lr	1	Cz	112	sociale	immensità	quantity	689.2000000000003	1	
s15_2018_rl	2	Cz	1	sociale	carenza	quantity	753.5	1	
s15_2018_rl	2	Cz	2	sociale	quintale	quantity	614.3000000000002	1	
s15_2018_rl	2	Cz	3	sociale	carico	quantity	544.3000000000002	1	
s15_2018_rl	2	Cz	4	sociale	diffamazione	social	557.0999999999999	-1	
s15_2018_rl	2	Cz	5	quantità	frazione	quantity	737.7000000000003	1	
s15_2018_rl	2	Cz	6	quantità	dispetto	social	647.0999999999999	1	
s15_2018_rl	2	Cz	7	quantità	lusinga	social	615.9000000000001	1	
s15_2018_rl	2	Cz	8	sociale	dissenso	social	810.0999999999999	1	
s15_2018_rl	2	Cz	9	sociale	estensione	quantity	900.2000000000003	1	
s15_2018_rl	2	Cz	10	quantità	scherzo	social	563.0	1	
s15_2018_rl	2	Cz	11	sociale	accrescimento	quantity	703.0999999999999	1	
s15_2018_rl	2	Cz	12	quantità	relazione	social	757.8000000000002	1	
s15_2018_rl	2	Cz	13	quantità	massa	quantity	546.4000000000001	1	
s15_2018_rl	2	Cz	14	sociale	nomea	social	591.2000000000003	1	
s15_2018_rl	2	Cz	15	quantità	accrescimento	quantity	690.7000000000003	1	
s15_2018_rl	2	Cz	16	quantità	nomea	social	594.2000000000003	1	
s15_2018_rl	2	Cz	17	sociale	altruismo	social	620.8000000000002	1	
s15_2018_rl	2	Cz	18	sociale	gentilezza	social	695.0	1	
s15_2018_rl	2	Cz	19	quantità	immensità	quantity	701.5999999999999	1	
s15_2018_rl	2	Cz	20	quantità	mole	quantity	580.5	1	
s15_2018_rl	2	Cz	21	sociale	porzione	quantity	655.8000000000002	1	
s15_2018_rl	2	Cz	22	quantità	cospirazione	social	856.5999999999999	1	
s15_2018_rl	2	Cz	23	sociale	mole	quantity	745.3000000000002	1	
s15_2018_rl	2	Cz	24	sociale	sudditanza	social	638.2000000000003	1	
s15_2018_rl	2	Cz	25	sociale	allargamento	quantity	631.5	1	
s15_2018_rl	2	Cz	26	sociale	grandezza	quantity	553.0999999999999	1	
s15_2018_rl	2	Cz	27	sociale	patto	social	565.8000000000002	1	
s15_2018_rl	2	Cz	28	sociale	rivalità	social	681.8000000000002	1	
s15_2018_rl	2	Cz	29	quantità	emarginazione	social	785.2000000000003	-1	
s15_2018_rl	2	Cz	30	sociale	diminuzione	quantity	756.5999999999999	1	
s15_2018_rl	2	Cz	31	sociale	accumulo	quantity	657.4000000000001	1	
s15_2018_rl	2	Cz	32	quantità	grossezza	quantity	634.2000000000003	-1	
s15_2018_rl	2	Cz	33	sociale	stazza	quantity	755.7000000000003	1	
s15_2018_rl	2	Cz	34	sociale	notorietà	social	928.4000000000001	1	
s15_2018_rl	2	Cz	35	sociale	incremento	quantity	1133.9	1	
s15_2018_rl	2	Cz	36	sociale	addizione	quantity	1091.3000000000002	1	
s15_2018_rl	2	Cz	37	quantità	grandezza	quantity	650.5999999999999	1	
s15_2018_rl	2	Cz	38	quantità	allargamento	quantity	747.5	1	
s15_2018_rl	2	Cz	39	quantità	porzione	quantity	760.0999999999999	1	
s15_2018_rl	2	Cz	40	sociale	tonnellata	quantity	596.3000000000002	-1	
s15_2018_rl	2	Cz	41	sociale	servitù	social	783.0999999999999	1	
s15_2018_rl	2	Cz	42	sociale	frazione	quantity	746.4000000000001	1	
s15_2018_rl	2	Cz	43	quantità	tonnellata	quantity	695.0999999999999	1	
s15_2018_rl	2	Cz	44	quantità	servitù	social	533.9000000000001	1	
s15_2018_rl	2	Cz	45	quantità	infamia	social	755.3000000000002	1	
s15_2018_rl	2	Cz	46	quantità	patto	social	608.2000000000003	1	
s15_2018_rl	2	Cz	47	sociale	grossezza	quantity	699.0	1	
s15_2018_rl	2	Cz	48	quantità	ingrandimento	quantity	889.5999999999999	1	
s15_2018_rl	2	Cz	49	sociale	cospirazione	social	649.0	1	
s15_2018_rl	2	Cz	50	quantità	fascino	social	753.9000000000001	1	
s15_2018_rl	2	Cz	51	sociale	catasta	quantity	1366.7000000000003	1	
s15_2018_rl	2	Cz	52	sociale	sfacciataggine	social	802.5999999999999	1	
s15_2018_rl	2	Cz	53	sociale	massa	quantity	533.5	1	
s15_2018_rl	2	Cz	54	sociale	immensità	quantity	651.0	-1	
s15_2018_rl	2	Cz	55	quantità	gentilezza	social	691.5999999999999	1	
s15_2018_rl	2	Cz	56	sociale	relazione	social	683.0999999999999	1	
s15_2018_rl	2	Cz	57	quantità	penuria	quantity	714.4000000000001	1	
s15_2018_rl	2	Cz	58	sociale	lusinga	social	632.5999999999999	1	
s15_2018_rl	2	Cz	59	quantità	venerazione	social	633.9000000000001	1	
s15_2018_rl	2	Cz	60	quantità	altruismo	social	571.3000000000002	1	
s15_2018_rl	2	Cz	61	quantità	incremento	quantity	703.5999999999999	1	
s15_2018_rl	2	Cz	62	sociale	dilatazione	quantity	662.2000000000003	-1	
s15_2018_rl	2	Cz	63	sociale	complotto	social	934.4000000000001	1	
s15_2018_rl	2	Cz	64	quantità	enormità	quantity	771.9000000000001	1	
s15_2018_rl	2	Cz	65	sociale	infamia	social	983.8000000000002	1	
s15_2018_rl	2	Cz	66	quantità	competizione	social	739.4000000000001	1	
s15_2018_rl	2	Cz	67	quantità	dilatazione	quantity	656.5999999999999	1	
s15_2018_rl	2	Cz	68	quantità	addizione	quantity	745.5	1	
s15_2018_rl	2	Cz	69	quantità	complotto	social	614.3000000000002	1	
s15_2018_rl	2	Cz	70	sociale	offesa	social	816.4000000000001	1	
s15_2018_rl	2	Cz	71	quantità	diffamazione	social	1042.3000000000002	1	
s15_2018_rl	2	Cz	72	sociale	plebe	social	667.0999999999999	1	
s15_2018_rl	2	Cz	73	sociale	tradizione	social	795.2000000000003	1	
s15_2018_rl	2	Cz	74	sociale	dispetto	social	670.0999999999999	1	
s15_2018_rl	2	Cz	75	sociale	riduzione	quantity	654.2000000000003	1	
s15_2018_rl	2	Cz	76	quantità	riduzione	quantity	654.8000000000002	1	
s15_2018_rl	2	Cz	77	sociale	alleanza	social	519.7000000000003	1	
s15_2018_rl	2	Cz	78	quantità	plebe	social	573.8000000000002	1	
s15_2018_rl	2	Cz	79	sociale	penuria	quantity	537.7000000000003	1	
s15_2018_rl	2	Cz	80	sociale	etnia	social	623.3000000000002	1	
s15_2018_rl	2	Cz	81	quantità	espansione	quantity	577.4000000000001	1	
s15_2018_rl	2	Cz	82	sociale	competizione	social	604.8000000000002	1	
s15_2018_rl	2	Cz	83	quantità	sfacciataggine	social	615.5999999999999	1	
s15_2018_rl	2	Cz	84	quantità	catasta	quantity	617.5	1	
s15_2018_rl	2	Cz	85	quantità	estensione	quantity	771.7000000000003	-1	
s15_2018_rl	2	Cz	86	sociale	emarginazione	social	687.8000000000002	-1	
s15_2018_rl	2	Cz	87	quantità	tradizione	social	591.2000000000003	1	
s15_2018_rl	2	Cz	88	quantità	decremento	quantity	642.7000000000003	1	
s15_2018_rl	2	Cz	89	quantità	stazza	quantity	779.4000000000001	-1	
s15_2018_rl	2	Cz	90	quantità	notorietà	social	886.8000000000002	1	
s15_2018_rl	2	Cz	91	sociale	cumulo	quantity	670.0999999999999	1	
s15_2018_rl	2	Cz	92	quantità	rivalità	social	670.3000000000002	1	
s15_2018_rl	2	Cz	93	quantità	cumulo	quantity	734.3000000000002	1	
s15_2018_rl	2	Cz	94	quantità	etnia	social	627.8000000000002	1	
s15_2018_rl	2	Cz	95	sociale	socievolezza	social	709.0999999999999	1	
s15_2018_rl	2	Cz	96	sociale	fascino	social	667.2000000000003	1	
s15_2018_rl	2	Cz	97	quantità	socievolezza	social	539.3000000000002	1	
s15_2018_rl	2	Cz	98	sociale	scherzo	social	544.7000000000003	1	
s15_2018_rl	2	Cz	99	sociale	decremento	quantity	613.5999999999999	1	
s15_2018_rl	2	Cz	100	quantità	quintale	quantity	655.5999999999999	1	
s15_2018_rl	2	Cz	101	quantità	accumulo	quantity	848.3000000000002	1	
s15_2018_rl	2	Cz	102	quantità	offesa	social	609.0999999999999	-1	
s15_2018_rl	2	Cz	103	sociale	enormità	quantity	771.2000000000003	1	
s15_2018_rl	2	Cz	104	quantità	dissenso	social	727.4000000000001	1	
s15_2018_rl	2	Cz	105	sociale	espansione	quantity	772.7000000000003	1	
s15_2018_rl	2	Cz	106	quantità	sudditanza	social	608.9000000000001	1	
s15_2018_rl	2	Cz	107	quantità	diminuzione	quantity	691.0	1	
s15_2018_rl	2	Cz	108	quantità	carico	quantity	594.4000000000001	1	
s15_2018_rl	2	Cz	109	sociale	venerazione	social	629.2000000000003	1	
s15_2018_rl	2	Cz	110	quantità	carenza	quantity	910.5999999999999	-1	
s15_2018_rl	2	Cz	111	sociale	ingrandimento	quantity	604.5999999999999	1	
s15_2018_rl	2	Cz	112	quantità	alleanza	social	575.3000000000002	1	
s34_2018_ss	1	rSATL	1	sociale	massa	quantity	1200.6	1	
s34_2018_ss	1	rSATL	2	quantità	venerazione	social	1299.3000000000002	1	
s34_2018_ss	1	rSATL	3	sociale	enormità	quantity	1034.0	1	
s34_2018_ss	1	rSATL	4	sociale	sfacciataggine	social	1379.5	1	
s34_2018_ss	1	rSATL	5	sociale	sudditanza	social	1118.9	1	
s34_2018_ss	1	rSATL	6	sociale	incremento	quantity	1413.0	1	
s34_2018_ss	1	rSATL	7	quantità	frazione	quantity	1823.2000000000003	-1	
s34_2018_ss	1	rSATL	8	quantità	allargamento	quantity	1209.4	-1	
s34_2018_ss	1	rSATL	9	quantità	sfacciataggine	social	1211.5	1	
s34_2018_ss	1	rSATL	10	quantità	carenza	quantity	1069.6	1	
s34_2018_ss	1	rSATL	11	quantità	accrescimento	quantity	1405.6	1	
s34_2018_ss	1	rSATL	12	sociale	grossezza	quantity	1200.4	1	
s34_2018_ss	1	rSATL	13	sociale	cospirazione	social	1067.2000000000003	1	
s34_2018_ss	1	rSATL	14	sociale	accumulo	quantity	1211.3000000000002	1	
s34_2018_ss	1	rSATL	15	quantità	enormità	quantity	1301.4	1	
s34_2018_ss	1	rSATL	16	quantità	diminuzione	quantity	1260.1	1	
s34_2018_ss	1	rSATL	17	sociale	notorietà	social	1132.2000000000003	1	
s34_2018_ss	1	rSATL	18	quantità	incremento	quantity	1137.5	1	
s34_2018_ss	1	rSATL	19	sociale	quintale	quantity	1119.0	1	
s34_2018_ss	1	rSATL	20	sociale	diminuzione	quantity	1309.2000000000003	1	
s34_2018_ss	1	rSATL	21	sociale	cumulo	quantity	1275.3000000000002	1	
s34_2018_ss	1	rSATL	22	quantità	quintale	quantity	1163.4	1	
s34_2018_ss	1	rSATL	23	quantità	patto	social	1023.4000000000001	1	
s34_2018_ss	1	rSATL	24	quantità	plebe	social	793.5999999999999	1	
s34_2018_ss	1	rSATL	25	quantità	sudditanza	social	1124.3000000000002	1	
s34_2018_ss	1	rSATL	26	quantità	offesa	social	1146.3000000000002	1	
s34_2018_ss	1	rSATL	27	sociale	carenza	quantity	1063.1	1	
s34_2018_ss	1	rSATL	28	quantità	etnia	social	1063.3000000000002	1	
s34_2018_ss	1	rSATL	29	sociale	diffamazione	social	1127.2000000000003	1	
s34_2018_ss	1	rSATL	30	sociale	ingrandimento	quantity	1292.7000000000003	-1	
s34_2018_ss	1	rSATL	31	quantità	decremento	quantity	1275.4	1	
s34_2018_ss	1	rSATL	32	sociale	socievolezza	social	979.5	1	
s34_2018_ss	1	rSATL	33	sociale	immensità	quantity	1383.0	1	
s34_2018_ss	1	rSATL	34	sociale	frazione	quantity	1218.4	1	
s34_2018_ss	1	rSATL	35	sociale	dissenso	social	868.5	1	
s34_2018_ss	1	rSATL	36	quantità	infamia	social	1044.7000000000003	1	
s34_2018_ss	1	rSATL	37	quantità	grandezza	quantity	909.3000000000002	1	
s34_2018_ss	1	rSATL	38	sociale	riduzione	quantity	899.4000000000001	1	
s34_2018_ss	1	rSATL	39	quantità	fascino	social	850.2000000000003	1	
s34_2018_ss	1	rSATL	40	quantità	tradizione	social	939.0999999999999	1	
s34_2018_ss	1	rSATL	41	sociale	infamia	social	960.4000000000001	1	
s34_2018_ss	1	rSATL	42	quantità	rivalità	social	1068.6	1	
s34_2018_ss	1	rSATL	43	sociale	mole	quantity	948.5999999999999	1	
s34_2018_ss	1	rSATL	44	quantità	espansione	quantity	1313.4	-1	
s34_2018_ss	1	rSATL	45	quantità	mole	quantity	927.5999999999999	1	
s34_2018_ss	1	rSATL	46	sociale	patto	social	1293.0	1	
s34_2018_ss	1	rSATL	47	sociale	servitù	social	947.5999999999999	1	
s34_2018_ss	1	rSATL	48	quantità	servitù	social	888.5	1	
s34_2018_ss	1	rSATL	49	quantità	porzione	quantity	1439.9	1	
s34_2018_ss	1	rSATL	50	sociale	offesa	social	1073.2000000000003	1	
s34_2018_ss	1	rSATL	51	sociale	emarginazione	social	1169.3000000000002	1	
s34_2018_ss	1	rSATL	52	quantità	catasta	quantity	1653.4	-1	
s34_2018_ss	1	rSATL	53	quantità	cospirazione	social	918.2000000000003	1	
s34_2018_ss	1	rSATL	54	sociale	etnia	social	924.3000000000002	1	
s34_2018_ss	1	rSATL	55	sociale	tonnellata	quantity	826.5	1	
s34_2018_ss	1	rSATL	56	sociale	penuria	quantity	1131.9	1	
s34_2018_ss	1	rSATL	57	sociale	venerazione	social	1193.3000000000002	1	
s34_2018_ss	1	rSATL	58	sociale	tradizione	social	908.0999999999999	1	
s34_2018_ss	1	rSATL	59	sociale	complotto	social	986.7000000000003	1	
s34_2018_ss	1	rSATL	60	sociale	nomea	social	982.0999999999999	1	
s34_2018_ss	1	rSATL	61	quantità	altruismo	social	937.5999999999999	1	
s34_2018_ss	1	rSATL	62	sociale	grandezza	quantity	967.0	1	
s34_2018_ss	1	rSATL	63	sociale	lusinga	social	1187.1	1	
s34_2018_ss	1	rSATL	64	sociale	allargamento	quantity	1310.7000000000003	-1	
s34_2018_ss	1	rSATL	65	quantità	ingrandimento	quantity	1380.8000000000002	-1	
s34_2018_ss	1	rSATL	66	sociale	porzione	quantity	1024.1	1	
s34_2018_ss	1	rSATL	67	quantità	dissenso	social	986.3000000000002	1	
s34_2018_ss	1	rSATL	68	quantità	emarginazione	social	1317.6	1	
s34_2018_ss	1	rSATL	69	quantità	dispetto	social	947.8000000000002	1	
s34_2018_ss	1	rSATL	70	quantità	gentilezza	social	936.4000000000001	1	
s34_2018_ss	1	rSATL	71	sociale	estensione	quantity	1445.9	1	
s34_2018_ss	1	rSATL	72	quantità	scherzo	social	990.5999999999999	1	
s34_2018_ss	1	rSATL	73	quantità	notorietà	social	1050.1	1	
s34_2018_ss	1	rSATL	74	sociale	altruismo	social	978.9000000000001	1	
s34_2018_ss	1	rSATL	75	sociale	rivalità	social	1038.4	1	
s34_2018_ss	1	rSATL	76	quantità	addizione	quantity	983.8000000000002	1	
s34_2018_ss	1	rSATL	77	quantità	grossezza	quantity	1019.0999999999999	1	
s34_2018_ss	1	rSATL	78	sociale	gentilezza	social	885.2000000000003	1	
s34_2018_ss	1	rSATL	79	sociale	accrescimento	quantity	1852.7000000000003	1	
s34_2018_ss	1	rSATL	80	sociale	catasta	quantity	981.4000000000001	1	
s34_2018_ss	1	rSATL	81	quantità	nomea	social	984.8000000000002	1	
s34_2018_ss	1	rSATL	82	quantità	socievolezza	social	996.2000000000003	1	
s34_2018_ss	1	rSATL	83	sociale	scherzo	social	935.0999999999999	1	
s34_2018_ss	1	rSATL	84	quantità	dilatazione	quantity	1252.6	1	
s34_2018_ss	1	rSATL	85	quantità	relazione	social	861.3000000000002	1	
s34_2018_ss	1	rSATL	86	sociale	stazza	quantity	949.4000000000001	1	
s34_2018_ss	1	rSATL	87	sociale	relazione	social	794.0	1	
s34_2018_ss	1	rSATL	88	quantità	competizione	social	892.9000000000001	1	
s34_2018_ss	1	rSATL	89	sociale	addizione	quantity	763.5	1	
s34_2018_ss	1	rSATL	90	quantità	riduzione	quantity	879.8000000000002	1	
s34_2018_ss	1	rSATL	91	quantità	accumulo	quantity	1071.0	1	
s34_2018_ss	1	rSATL	92	quantità	complotto	social	895.2000000000003	1	
s34_2018_ss	1	rSATL	93	quantità	stazza	quantity	926.0	1	
s34_2018_ss	1	rSATL	94	sociale	carico	quantity	1131.3000000000002	1	
s34_2018_ss	1	rSATL	95	quantità	carico	quantity	944.7000000000003	1	
s34_2018_ss	1	rSATL	96	sociale	dilatazione	quantity	1381.6	1	
s34_2018_ss	1	rSATL	97	sociale	dispetto	social	800.9000000000001	1	
s34_2018_ss	1	rSATL	98	sociale	fascino	social	731.8000000000002	1	
s34_2018_ss	1	rSATL	99	quantità	estensione	quantity	1185.2000000000003	-1	
s34_2018_ss	1	rSATL	100	quantità	immensità	quantity	1644.5	1	
s34_2018_ss	1	rSATL	101	sociale	espansione	quantity	1293.3000000000002	1	
s34_2018_ss	1	rSATL	102	quantità	lusinga	social	836.0999999999999	1	
s34_2018_ss	1	rSATL	103	sociale	decremento	quantity	1157.6	1	
s34_2018_ss	1	rSATL	104	quantità	cumulo	quantity	898.2000000000003	1	
s34_2018_ss	1	rSATL	105	sociale	plebe	social	1321.0	1	
s34_2018_ss	1	rSATL	106	quantità	massa	quantity	943.0999999999999	1	
s34_2018_ss	1	rSATL	107	quantità	tonnellata	quantity	828.0	1	
s34_2018_ss	1	rSATL	108	quantità	penuria	quantity	1213.4	1	
s34_2018_ss	1	rSATL	109	quantità	alleanza	social	871.5	1	
s34_2018_ss	1	rSATL	110	quantità	diffamazione	social	1063.5	1	
s34_2018_ss	1	rSATL	111	sociale	alleanza	social	1111.7000000000003	1	
s34_2018_ss	1	rSATL	112	sociale	competizione	social	741.8000000000002	1	
s19_2018_ib	2	rSATL	1	quantità	altruismo	social	1002.4000000000001	1	
s19_2018_ib	2	rSATL	2	sociale	alleanza	social	789.0999999999999	1	
s19_2018_ib	2	rSATL	3	quantità	venerazione	social	664.5	1	
s19_2018_ib	2	rSATL	4	sociale	servitù	social	536.5	1	
s19_2018_ib	2	rSATL	5	quantità	penuria	quantity	221.9000000000001	-1	
s19_2018_ib	2	rSATL	6	sociale	massa	quantity	1152.0	-1	
s19_2018_ib	2	rSATL	7	quantità	catasta	quantity	748.8000000000002	1	
s19_2018_ib	2	rSATL	8	quantità	notorietà	social	729.5	1	
s19_2018_ib	2	rSATL	9	sociale	incremento	quantity	927.0999999999999	1	
s19_2018_ib	2	rSATL	10	sociale	etnia	social	1052.5	1	
s19_2018_ib	2	rSATL	11	sociale	dispetto	social	709.3000000000002	1	
s19_2018_ib	2	rSATL	12	quantità	porzione	quantity	675.2000000000003	-1	
s19_2018_ib	2	rSATL	13	sociale	lusinga	social	843.4000000000001	1	
s19_2018_ib	2	rSATL	14	quantità	infamia	social	716.2000000000003	1	
s19_2018_ib	2	rSATL	15	sociale	patto	social	898.2000000000003	1	
s19_2018_ib	2	rSATL	16	quantità	tonnellata	quantity	632.9000000000001	1	
s19_2018_ib	2	rSATL	17	sociale	stazza	quantity	786.3000000000002	1	
s19_2018_ib	2	rSATL	18	quantità	cospirazione	social	637.8000000000002	1	
s19_2018_ib	2	rSATL	19	quantità	socievolezza	social	727.2000000000003	1	
s19_2018_ib	2	rSATL	20	quantità	sudditanza	social	772.7000000000003	1	
s19_2018_ib	2	rSATL	21	quantità	grandezza	quantity	744.8000000000002	1	
s19_2018_ib	2	rSATL	22	sociale	sudditanza	social	893.5999999999999	1	
s19_2018_ib	2	rSATL	23	quantità	dilatazione	quantity	940.4000000000001	1	
s19_2018_ib	2	rSATL	24	quantità	patto	social	729.8000000000002	1	
s19_2018_ib	2	rSATL	25	quantità	decremento	quantity	983.2000000000003	1	
s19_2018_ib	2	rSATL	26	quantità	alleanza	social	842.5999999999999	1	
s19_2018_ib	2	rSATL	27	quantità	gentilezza	social	1059.3000000000002	1	
s19_2018_ib	2	rSATL	28	sociale	sfacciataggine	social	1107.5	1	
s19_2018_ib	2	rSATL	29	quantità	emarginazione	social	730.0999999999999	1	
s19_2018_ib	2	rSATL	30	sociale	cumulo	quantity	807.5	1	
s19_2018_ib	2	rSATL	31	quantità	immensità	quantity	770.4000000000001	1	
s19_2018_ib	2	rSATL	32	quantità	lusinga	social	718.5	1	
s19_2018_ib	2	rSATL	33	quantità	allargamento	quantity	964.5	-1	
s19_2018_ib	2	rSATL	34	quantità	dispetto	social	896.7000000000003	1	
s19_2018_ib	2	rSATL	35	sociale	carenza	quantity	831.3000000000002	-1	
s19_2018_ib	2	rSATL	36	sociale	cospirazione	social	1192.9	1	
s19_2018_ib	2	rSATL	37	quantità	quintale	quantity	763.5	1	
s19_2018_ib	2	rSATL	38	sociale	enormità	quantity	735.8000000000002	1	
s19_2018_ib	2	rSATL	39	sociale	catasta	quantity	749.2000000000003	1	
s19_2018_ib	2	rSATL	40	sociale	allargamento	quantity	681.9000000000001	1	
s19_2018_ib	2	rSATL	41	quantità	diminuzione	quantity	649.2000000000003	1	
s19_2018_ib	2	rSATL	42	sociale	frazione	quantity	698.0999999999999	1	
s19_2018_ib	2	rSATL	43	sociale	decremento	quantity	760.9000000000001	1	
s19_2018_ib	2	rSATL	44	sociale	dissenso	social	636.8000000000002	-1	
s19_2018_ib	2	rSATL	45	sociale	nomea	social	1182.4	1	
s19_2018_ib	2	rSATL	46	quantità	plebe	social	817.8000000000002	1	
s19_2018_ib	2	rSATL	47	quantità	enormità	quantity	1155.8000000000002	1	
s19_2018_ib	2	rSATL	48	quantità	complotto	social	696.5999999999999	1	
s19_2018_ib	2	rSATL	49	quantità	espansione	quantity	847.4000000000001	1	
s19_2018_ib	2	rSATL	50	sociale	riduzione	quantity	728.2000000000003	1	
s19_2018_ib	2	rSATL	51	quantità	addizione	quantity	1357.6	1	
s19_2018_ib	2	rSATL	52	sociale	tonnellata	quantity	634.3000000000002	1	
s19_2018_ib	2	rSATL	53	sociale	altruismo	social	707.8000000000002	1	
s19_2018_ib	2	rSATL	54	sociale	porzione	quantity	810.4000000000001	1	
s19_2018_ib	2	rSATL	55	sociale	notorietà	social	748.5	1	
s19_2018_ib	2	rSATL	56	quantità	frazione	quantity	721.3000000000002	1	
s19_2018_ib	2	rSATL	57	quantità	fascino	social	679.5	1	
s19_2018_ib	2	rSATL	58	sociale	accrescimento	quantity	902.8000000000002	1	
s19_2018_ib	2	rSATL	59	quantità	tradizione	social	925.5999999999999	1	
s19_2018_ib	2	rSATL	60	quantità	competizione	social	923.0999999999999	1	
s19_2018_ib	2	rSATL	61	quantità	ingrandimento	quantity	729.2000000000003	1	
s19_2018_ib	2	rSATL	62	sociale	plebe	social	582.5	1	
