	Stimulus	SubjectID	ExperimentID	Run	Handedness	TrialCounter	TrialID	RT	Response	Corr_resp	Condition	Type	nSamples	Group	N_Phonemes	N_Syllabes	score.gusto	score.olfatto	score.tatto	score.udito	score.vista	maxPercepStrength	domSense	sumPercepStrength	entropy	modalityExclusivity	length	CDcount	zipf	fpmw	LogFmpw	ortographNeigh	ortographLevenshtein	FAM	AoA	CA	accuracy	stimdur
1	abbagliante	SC_21	cnc	1	s	247	41	790.1125	s	s	word	vis	31068	SC	10	4	0.1	0.05	0.2	175	4.925	4.925	vista	5.45	0.44	894	11	49	2.689	483	-316	1	2.3	6	4.167	6	1	704.4897959
2	abbagliante	SC_12	cnc	1	d	173	41	959	d	d	word	vis	31068	SC	10	4	0.1	0.05	0.2	175	4.925	4.925	vista	5.45	0.44	894	11	49	2.689	483	-316	1	2.3	6	4.167	6	1	704.4897959
3	abbagliante	EB_19	cnc	2	d	117	41	787	d	d	word	vis	31068	EB	10	4	0.1	0.05	0.2	175	4.925	4.925	vista	5.45	0.44	894	11	49	2.689	483	-316	1	2.3	6	4.167	6	1	704.4897959
4	abbagliante	EB_20	cnc	2	d	52	41	727.1921	d	d	word	vis	31068	EB	10	4	0.1	0.05	0.2	175	4.925	4.925	vista	5.45	0.44	894	11	49	2.689	483	-316	1	2.3	6	4.167	6	1	704.4897959
5	abbagliante	EB_10	cnc	2	s	27	41	946.7039	s	s	word	vis	31068	EB	10	4	0.1	0.05	0.2	175	4.925	4.925	vista	5.45	0.44	894	11	49	2.689	483	-316	1	2.3	6	4.167	6	1	704.4897959
6	abbagliante	EB_3	cnc	2	d	165	41	561.1354	d	d	word	vis	31068	EB	10	4	0.1	0.05	0.2	175	4.925	4.925	vista	5.45	0.44	894	11	49	2.689	483	-316	1	2.3	6	4.167	6	1	704.4897959
7	abbagliante	SC_4	cnc	1	d	243	41	638.2009	d	d	word	vis	31068	SC	10	4	0.1	0.05	0.2	175	4.925	4.925	vista	5.45	0.44	894	11	49	2.689	483	-316	1	2.3	6	4.167	6	1	704.4897959
8	abbagliante	SC_10	cnc	2	d	96	41	737.5908	d	d	word	vis	31068	SC	10	4	0.1	0.05	0.2	175	4.925	4.925	vista	5.45	0.44	894	11	49	2.689	483	-316	1	2.3	6	4.167	6	1	704.4897959
9	abbagliante	EB_15	cnc	2	d	179	41	835	d	d	word	vis	31068	EB	10	4	0.1	0.05	0.2	175	4.925	4.925	vista	5.45	0.44	894	11	49	2.689	483	-316	1	2.3	6	4.167	6	1	704.4897959
10	abbagliante	EB_17	cnc	2	d	134	41	706.3324	d	d	word	vis	31068	EB	10	4	0.1	0.05	0.2	175	4.925	4.925	vista	5.45	0.44	894	11	49	2.689	483	-316	1	2.3	6	4.167	6	1	704.4897959
11	abbagliante	EB_12	cnc	2	d	124	41	664.1265	d	d	word	vis	31068	EB	10	4	0.1	0.05	0.2	175	4.925	4.925	vista	5.45	0.44	894	11	49	2.689	483	-316	1	2.3	6	4.167	6	1	704.4897959
12	abbagliante	EB_7	cnc	2	d	49	41	1205.164	d	d	word	vis	31068	EB	10	4	0.1	0.05	0.2	175	4.925	4.925	vista	5.45	0.44	894	11	49	2.689	483	-316	1	2.3	6	4.167	6	1	704.4897959
13	abbagliante	SC_1	cnc	1	d	101	41	905.4572	d	d	word	vis	31068	SC	10	4	0.1	0.05	0.2	175	4.925	4.925	vista	5.45	0.44	894	11	49	2.689	483	-316	1	2.3	6	4.167	6	1	704.4897959
14	abbagliante	EB_9	cnc	1	d	131	41	818.7527	d	d	word	vis	31068	EB	10	4	0.1	0.05	0.2	175	4.925	4.925	vista	5.45	0.44	894	11	49	2.689	483	-316	1	2.3	6	4.167	6	1	704.4897959
15	abbagliante	EB_4	cnc	2	d	68	41	675.1698	d	d	word	vis	31068	EB	10	4	0.1	0.05	0.2	175	4.925	4.925	vista	5.45	0.44	894	11	49	2.689	483	-316	1	2.3	6	4.167	6	1	704.4897959
16	abbagliante	SC_13	cnc	2	d	145	41	769.5882	d	d	word	vis	31068	SC	10	4	0.1	0.05	0.2	175	4.925	4.925	vista	5.45	0.44	894	11	49	2.689	483	-316	1	2.3	6	4.167	6	1	704.4897959
17	abbagliante	EB_1	cnc	2	d	101	41	891.0509	d	d	word	vis	31068	EB	10	4	0.1	0.05	0.2	175	4.925	4.925	vista	5.45	0.44	894	11	49	2.689	483	-316	1	2.3	6	4.167	6	1	704.4897959
18	abbagliante	EB_9	cnc	2	d	39	41	644.7807	d	d	word	vis	31068	EB	10	4	0.1	0.05	0.2	175	4.925	4.925	vista	5.45	0.44	894	11	49	2.689	483	-316	1	2.3	6	4.167	6	1	704.4897959
19	abbagliante	EB_18	cnc	1	d	133	41	911.7449	d	d	word	vis	31068	EB	10	4	0.1	0.05	0.2	175	4.925	4.925	vista	5.45	0.44	894	11	49	2.689	483	-316	1	2.3	6	4.167	6	1	704.4897959
20	abbagliante	SC_19	cnc	2	d	92	41	587.4684	d	d	word	vis	31068	SC	10	4	0.1	0.05	0.2	175	4.925	4.925	vista	5.45	0.44	894	11	49	2.689	483	-316	1	2.3	6	4.167	6	1	704.4897959
21	abbagliante	SC_20	cnc	2	d	171	41	903.0679	d	d	word	vis	31068	SC	10	4	0.1	0.05	0.2	175	4.925	4.925	vista	5.45	0.44	894	11	49	2.689	483	-316	1	2.3	6	4.167	6	1	704.4897959
22	abbagliante	EB_6	cnc	2	d	204	41	757.777	d	d	word	vis	31068	EB	10	4	0.1	0.05	0.2	175	4.925	4.925	vista	5.45	0.44	894	11	49	2.689	483	-316	1	2.3	6	4.167	6	1	704.4897959
23	abbagliante	SC_10	cnc	1	d	59	41	792.6404	d	d	word	vis	31068	SC	10	4	0.1	0.05	0.2	175	4.925	4.925	vista	5.45	0.44	894	11	49	2.689	483	-316	1	2.3	6	4.167	6	1	704.4897959
24	abbagliante	SC_6	cnc	1	d	227	41	743.1655	d	d	word	vis	31068	SC	10	4	0.1	0.05	0.2	175	4.925	4.925	vista	5.45	0.44	894	11	49	2.689	483	-316	1	2.3	6	4.167	6	1	704.4897959
25	abbagliante	EB_16	cnc	2	d	144	41	694.391	d	d	word	vis	31068	EB	10	4	0.1	0.05	0.2	175	4.925	4.925	vista	5.45	0.44	894	11	49	2.689	483	-316	1	2.3	6	4.167	6	1	704.4897959
26	abbagliante	EB_10	cnc	1	s	68	41	1200.676	s	s	word	vis	31068	EB	10	4	0.1	0.05	0.2	175	4.925	4.925	vista	5.45	0.44	894	11	49	2.689	483	-316	1	2.3	6	4.167	6	1	704.4897959
27	abbagliante	EB_21	cnc	1	d	80	41	721.0239	d	d	word	vis	31068	EB	10	4	0.1	0.05	0.2	175	4.925	4.925	vista	5.45	0.44	894	11	49	2.689	483	-316	1	2.3	6	4.167	6	1	704.4897959
28	abbagliante	SC_12	cnc	2	d	115	41	818.5285	d	d	word	vis	31068	SC	10	4	0.1	0.05	0.2	175	4.925	4.925	vista	5.45	0.44	894	11	49	2.689	483	-316	1	2.3	6	4.167	6	1	704.4897959
29	abbagliante	SC_15	cnc	1	d	40	41	697.089	d	d	word	vis	31068	SC	10	4	0.1	0.05	0.2	175	4.925	4.925	vista	5.45	0.44	894	11	49	2.689	483	-316	1	2.3	6	4.167	6	1	704.4897959
30	abbagliante	SC_15	cnc	2	d	78	41	684.7186	d	d	word	vis	31068	SC	10	4	0.1	0.05	0.2	175	4.925	4.925	vista	5.45	0.44	894	11	49	2.689	483	-316	1	2.3	6	4.167	6	1	704.4897959
31	abbagliante	SC_9	cnc	1	d	154	41	636.514	d	d	word	vis	31068	SC	10	4	0.1	0.05	0.2	175	4.925	4.925	vista	5.45	0.44	894	11	49	2.689	483	-316	1	2.3	6	4.167	6	1	704.4897959
32	abbagliante	EB_11	cnc	1	d	265	41	803.4286	d	d	word	vis	31068	EB	10	4	0.1	0.05	0.2	175	4.925	4.925	vista	5.45	0.44	894	11	49	2.689	483	-316	1	2.3	6	4.167	6	1	704.4897959
33	abbagliante	SC_14	cnc	1	d	259	41	844.6088	d	d	word	vis	31068	SC	10	4	0.1	0.05	0.2	175	4.925	4.925	vista	5.45	0.44	894	11	49	2.689	483	-316	1	2.3	6	4.167	6	1	704.4897959
34	abbagliante	EB_12	cnc	1	d	143	41	561.2764	d	d	word	vis	31068	EB	10	4	0.1	0.05	0.2	175	4.925	4.925	vista	5.45	0.44	894	11	49	2.689	483	-316	1	2.3	6	4.167	6	1	704.4897959
35	abbagliante	EB_6	cnc	1	d	233	41	874.1362	d	d	word	vis	31068	EB	10	4	0.1	0.05	0.2	175	4.925	4.925	vista	5.45	0.44	894	11	49	2.689	483	-316	1	2.3	6	4.167	6	1	704.4897959
36	abbagliante	SC_8	cnc	2	d	65	41	880	d	d	word	vis	31068	SC	10	4	0.1	0.05	0.2	175	4.925	4.925	vista	5.45	0.44	894	11	49	2.689	483	-316	1	2.3	6	4.167	6	1	704.4897959
37	abbagliante	SC_5	cnc	2	d	155	41	667.3814	d	d	word	vis	31068	SC	10	4	0.1	0.05	0.2	175	4.925	4.925	vista	5.45	0.44	894	11	49	2.689	483	-316	1	2.3	6	4.167	6	1	704.4897959
38	abbagliante	EB_13	cnc	1	d	171	41	838.9609	d	d	word	vis	31068	EB	10	4	0.1	0.05	0.2	175	4.925	4.925	vista	5.45	0.44	894	11	49	2.689	483	-316	1	2.3	6	4.167	6	1	704.4897959
39	abbagliante	SC_17	cnc	2	d	98	41	756.8152	d	d	word	vis	31068	SC	10	4	0.1	0.05	0.2	175	4.925	4.925	vista	5.45	0.44	894	11	49	2.689	483	-316	1	2.3	6	4.167	6	1	704.4897959
40	abbagliante	EB_16	cnc	1	d	129	41	735.067	d	d	word	vis	31068	EB	10	4	0.1	0.05	0.2	175	4.925	4.925	vista	5.45	0.44	894	11	49	2.689	483	-316	1	2.3	6	4.167	6	1	704.4897959
41	abbagliante	EB_20	cnc	1	d	198	41	911.6361	d	d	word	vis	31068	EB	10	4	0.1	0.05	0.2	175	4.925	4.925	vista	5.45	0.44	894	11	49	2.689	483	-316	1	2.3	6	4.167	6	1	704.4897959
42	abbagliante	EB_2	cnc	2	d	82	41	806.6883	d	d	word	vis	31068	EB	10	4	0.1	0.05	0.2	175	4.925	4.925	vista	5.45	0.44	894	11	49	2.689	483	-316	1	2.3	6	4.167	6	1	704.4897959
43	abbagliante	EB_11	cnc	2	d	149	41	798.8926	d	d	word	vis	31068	EB	10	4	0.1	0.05	0.2	175	4.925	4.925	vista	5.45	0.44	894	11	49	2.689	483	-316	1	2.3	6	4.167	6	1	704.4897959
44	abbagliante	SC_13	cnc	1	d	79	41	915.8188	d	d	word	vis	31068	SC	10	4	0.1	0.05	0.2	175	4.925	4.925	vista	5.45	0.44	894	11	49	2.689	483	-316	1	2.3	6	4.167	6	1	704.4897959
45	abbagliante	SC_1	cnc	2	d	119	41	578	d	d	word	vis	31068	SC	10	4	0.1	0.05	0.2	175	4.925	4.925	vista	5.45	0.44	894	11	49	2.689	483	-316	1	2.3	6	4.167	6	1	704.4897959
46	abbagliante	SC_2	cnc	1	d	228	41	783.5973	d	d	word	vis	31068	SC	10	4	0.1	0.05	0.2	175	4.925	4.925	vista	5.45	0.44	894	11	49	2.689	483	-316	1	2.3	6	4.167	6	1	704.4897959
47	abbagliante	EB_15	cnc	1	d	76	41	829.6019	d	d	word	vis	31068	EB	10	4	0.1	0.05	0.2	175	4.925	4.925	vista	5.45	0.44	894	11	49	2.689	483	-316	1	2.3	6	4.167	6	1	704.4897959
48	abbagliante	EB_5	cnc	2	d	231	41	692.9838	d	d	word	vis	31068	EB	10	4	0.1	0.05	0.2	175	4.925	4.925	vista	5.45	0.44	894	11	49	2.689	483	-316	1	2.3	6	4.167	6	1	704.4897959
49	abbagliante	EB_8	cnc	2	d	143	41	766.1755	d	d	word	vis	31068	EB	10	4	0.1	0.05	0.2	175	4.925	4.925	vista	5.45	0.44	894	11	49	2.689	483	-316	1	2.3	6	4.167	6	1	704.4897959
50	abbagliante	SC_7	cnc	2	d	194	41	798	d	d	word	vis	31068	SC	10	4	0.1	0.05	0.2	175	4.925	4.925	vista	5.45	0.44	894	11	49	2.689	483	-316	1	2.3	6	4.167	6	1	704.4897959
51	abbagliante	EB_13	cnc	2	d	137	41	857.9072	d	d	word	vis	31068	EB	10	4	0.1	0.05	0.2	175	4.925	4.925	vista	5.45	0.44	894	11	49	2.689	483	-316	1	2.3	6	4.167	6	1	704.4897959
52	abbagliante	SC_5	cnc	1	d	58	41	639.4447	d	d	word	vis	31068	SC	10	4	0.1	0.05	0.2	175	4.925	4.925	vista	5.45	0.44	894	11	49	2.689	483	-316	1	2.3	6	4.167	6	1	704.4897959
53	abbagliante	SC_17	cnc	1	d	160	41	975.512	d	d	word	vis	31068	SC	10	4	0.1	0.05	0.2	175	4.925	4.925	vista	5.45	0.44	894	11	49	2.689	483	-316	1	2.3	6	4.167	6	1	704.4897959
54	abbagliante	SC_22	cnc	1	d	225	41	1106.102	d	d	word	vis	31068	SC	10	4	0.1	0.05	0.2	175	4.925	4.925	vista	5.45	0.44	894	11	49	2.689	483	-316	1	2.3	6	4.167	6	1	704.4897959
55	abbagliante	EB_3	cnc	1	d	80	41	873.2446	d	d	word	vis	31068	EB	10	4	0.1	0.05	0.2	175	4.925	4.925	vista	5.45	0.44	894	11	49	2.689	483	-316	1	2.3	6	4.167	6	1	704.4897959
56	abbagliante	SC_4	cnc	2	d	190	41	658.6891	d	d	word	vis	31068	SC	10	4	0.1	0.05	0.2	175	4.925	4.925	vista	5.45	0.44	894	11	49	2.689	483	-316	1	2.3	6	4.167	6	1	704.4897959
57	abbagliante	EB_19	cnc	1	d	153	41	694	d	d	word	vis	31068	EB	10	4	0.1	0.05	0.2	175	4.925	4.925	vista	5.45	0.44	894	11	49	2.689	483	-316	1	2.3	6	4.167	6	1	704.4897959
58	abbagliante	SC_22	cnc	2	d	187	41	1031.615	d	d	word	vis	31068	SC	10	4	0.1	0.05	0.2	175	4.925	4.925	vista	5.45	0.44	894	11	49	2.689	483	-316	1	2.3	6	4.167	6	1	704.4897959
59	abbagliante	SC_16	cnc	2	d	230	41	592.7977	d	d	word	vis	31068	SC	10	4	0.1	0.05	0.2	175	4.925	4.925	vista	5.45	0.44	894	11	49	2.689	483	-316	1	2.3	6	4.167	6	1	704.4897959
60	abbagliante	EB_21	cnc	2	d	39	41	965.6875	d	d	word	vis	31068	EB	10	4	0.1	0.05	0.2	175	4.925	4.925	vista	5.45	0.44	894	11	49	2.689	483	-316	1	2.3	6	4.167	6	1	704.4897959
61	abbagliante	SC_20	cnc	1	d	186	41	917.3216	d	d	word	vis	31068	SC	10	4	0.1	0.05	0.2	175	4.925	4.925	vista	5.45	0.44	894	11	49	2.689	483	-316	1	2.3	6	4.167	6	1	704.4897959
62	abbagliante	EB_1	cnc	1	d	215	41	938.2784	d	d	word	vis	31068	EB	10	4	0.1	0.05	0.2	175	4.925	4.925	vista	5.45	0.44	894	11	49	2.689	483	-316	1	2.3	6	4.167	6	1	704.4897959
63	abbagliante	EB_7	cnc	1	d	64	41	848.2918	d	d	word	vis	31068	EB	10	4	0.1	0.05	0.2	175	4.925	4.925	vista	5.45	0.44	894	11	49	2.689	483	-316	1	2.3	6	4.167	6	1	704.4897959
64	abbagliante	SC_6	cnc	2	d	38	41	852.966	d	d	word	vis	31068	SC	10	4	0.1	0.05	0.2	175	4.925	4.925	vista	5.45	0.44	894	11	49	2.689	483	-316	1	2.3	6	4.167	6	1	704.4897959
65	abbagliante	SC_16	cnc	1	d	40	41	701.7476	d	d	word	vis	31068	SC	10	4	0.1	0.05	0.2	175	4.925	4.925	vista	5.45	0.44	894	11	49	2.689	483	-316	1	2.3	6	4.167	6	1	704.4897959
66	abbagliante	EB_5	cnc	1	d	117	41	669.0707	d	d	word	vis	31068	EB	10	4	0.1	0.05	0.2	175	4.925	4.925	vista	5.45	0.44	894	11	49	2.689	483	-316	1	2.3	6	4.167	6	1	704.4897959
67	abbagliante	SC_7	cnc	1	d	69	41	700	d	d	word	vis	31068	SC	10	4	0.1	0.05	0.2	175	4.925	4.925	vista	5.45	0.44	894	11	49	2.689	483	-316	1	2.3	6	4.167	6	1	704.4897959
68	abbagliante	SC_21	cnc	2	s	235	41	881.4139	s	s	word	vis	31068	SC	10	4	0.1	0.05	0.2	175	4.925	4.925	vista	5.45	0.44	894	11	49	2.689	483	-316	1	2.3	6	4.167	6	1	704.4897959
69	abbagliante	EB_2	cnc	1	d	127	41	1056.61	d	d	word	vis	31068	EB	10	4	0.1	0.05	0.2	175	4.925	4.925	vista	5.45	0.44	894	11	49	2.689	483	-316	1	2.3	6	4.167	6	1	704.4897959
70	abbagliante	EB_4	cnc	1	d	126	41	701.4341	d	d	word	vis	31068	EB	10	4	0.1	0.05	0.2	175	4.925	4.925	vista	5.45	0.44	894	11	49	2.689	483	-316	1	2.3	6	4.167	6	1	704.4897959
71	abbagliante	EB_14	cnc	2	d	200	41	1013.562	d	d	word	vis	31068	EB	10	4	0.1	0.05	0.2	175	4.925	4.925	vista	5.45	0.44	894	11	49	2.689	483	-316	1	2.3	6	4.167	6	1	704.4897959
72	abbagliante	EB_18	cnc	2	d	215	41	1060	d	d	word	vis	31068	EB	10	4	0.1	0.05	0.2	175	4.925	4.925	vista	5.45	0.44	894	11	49	2.689	483	-316	1	2.3	6	4.167	6	1	704.4897959
73	abbagliante	EB_8	cnc	1	d	184	41	891.4688	d	d	word	vis	31068	EB	10	4	0.1	0.05	0.2	175	4.925	4.925	vista	5.45	0.44	894	11	49	2.689	483	-316	1	2.3	6	4.167	6	1	704.4897959
74	abbagliante	EB_14	cnc	1	d	265	41	1010.476	d	d	word	vis	31068	EB	10	4	0.1	0.05	0.2	175	4.925	4.925	vista	5.45	0.44	894	11	49	2.689	483	-316	1	2.3	6	4.167	6	1	704.4897959
75	abbagliante	EB_17	cnc	1	d	148	41	693.3736	d	d	word	vis	31068	EB	10	4	0.1	0.05	0.2	175	4.925	4.925	vista	5.45	0.44	894	11	49	2.689	483	-316	1	2.3	6	4.167	6	1	704.4897959
76	abbagliante	SC_3	cnc	2	s	43	41	897.0585	s	s	word	vis	31068	SC	10	4	0.1	0.05	0.2	175	4.925	4.925	vista	5.45	0.44	894	11	49	2.689	483	-316	1	2.3	6	4.167	6	1	704.4897959
77	abbagliante	SC_9	cnc	2	d	210	41	766.8507	d	d	word	vis	31068	SC	10	4	0.1	0.05	0.2	175	4.925	4.925	vista	5.45	0.44	894	11	49	2.689	483	-316	1	2.3	6	4.167	6	1	704.4897959
78	abbagliante	SC_19	cnc	1	d	51	41	678.4371	d	d	word	vis	31068	SC	10	4	0.1	0.05	0.2	175	4.925	4.925	vista	5.45	0.44	894	11	49	2.689	483	-316	1	2.3	6	4.167	6	1	704.4897959
79	abbagliante	SC_18	cnc	1	d	79	41	969.0583	d	d	word	vis	31068	SC	10	4	0.1	0.05	0.2	175	4.925	4.925	vista	5.45	0.44	894	11	49	2.689	483	-316	1	2.3	6	4.167	6	1	704.4897959
80	abbagliante	SC_8	cnc	1	d	197	41	1450	d	d	word	vis	31068	SC	10	4	0.1	0.05	0.2	175	4.925	4.925	vista	5.45	0.44	894	11	49	2.689	483	-316	1	2.3	6	4.167	6	1	704.4897959
81	abbagliante	SC_3	cnc	1	s	187	41	851.3157	s	s	word	vis	31068	SC	10	4	0.1	0.05	0.2	175	4.925	4.925	vista	5.45	0.44	894	11	49	2.689	483	-316	1	2.3	6	4.167	6	1	704.4897959
82	abbagliante	SC_14	cnc	2	d	50	41	858.1713	d	d	word	vis	31068	SC	10	4	0.1	0.05	0.2	175	4.925	4.925	vista	5.45	0.44	894	11	49	2.689	483	-316	1	2.3	6	4.167	6	1	704.4897959
83	abbagliante	SC_2	cnc	2	d	102	41	686.0789	d	d	word	vis	31068	SC	10	4	0.1	0.05	0.2	175	4.925	4.925	vista	5.45	0.44	894	11	49	2.689	483	-316	1	2.3	6	4.167	6	1	704.4897959
84	abbagliante	SC_18	cnc	2	d	25	41	888.4864	d	d	word	vis	31068	SC	10	4	0.1	0.05	0.2	175	4.925	4.925	vista	5.45	0.44	894	11	49	2.689	483	-316	1	2.3	6	4.167	6	1	704.4897959
85	accecante	EB_7	cnc	2	d	1	42	961.203	d	d	word	vis	31950	EB	9	4	0	26	237	154	4.974	4.974	vista	5.39	338	923	9	85	2.886	764	-117	2	2	4.944	4.4	5.842	1	724.4897959
86	accecante	SC_14	cnc	1	d	49	42	907.6498	d	d	word	vis	31950	SC	9	4	0	26	237	154	4.974	4.974	vista	5.39	338	923	9	85	2.886	764	-117	2	2	4.944	4.4	5.842	1	724.4897959
87	accecante	EB_11	cnc	2	d	165	42	1033.458	d	d	word	vis	31950	EB	9	4	0	26	237	154	4.974	4.974	vista	5.39	338	923	9	85	2.886	764	-117	2	2	4.944	4.4	5.842	1	724.4897959
88	accecante	SC_19	cnc	1	d	207	42	616.4657	d	d	word	vis	31950	SC	9	4	0	26	237	154	4.974	4.974	vista	5.39	338	923	9	85	2.886	764	-117	2	2	4.944	4.4	5.842	1	724.4897959
89	accecante	SC_18	cnc	1	d	241	42	1216.135	d	d	word	vis	31950	SC	9	4	0	26	237	154	4.974	4.974	vista	5.39	338	923	9	85	2.886	764	-117	2	2	4.944	4.4	5.842	1	724.4897959
90	accecante	SC_1	cnc	1	d	96	42	738.8511	d	d	word	vis	31950	SC	9	4	0	26	237	154	4.974	4.974	vista	5.39	338	923	9	85	2.886	764	-117	2	2	4.944	4.4	5.842	1	724.4897959
91	accecante	SC_3	cnc	1	s	112	42	1050.997	s	s	word	vis	31950	SC	9	4	0	26	237	154	4.974	4.974	vista	5.39	338	923	9	85	2.886	764	-117	2	2	4.944	4.4	5.842	1	724.4897959
92	accecante	EB_10	cnc	2	s	22	42	878.8021	s	s	word	vis	31950	EB	9	4	0	26	237	154	4.974	4.974	vista	5.39	338	923	9	85	2.886	764	-117	2	2	4.944	4.4	5.842	1	724.4897959
93	accecante	EB_5	cnc	2	d	188	42	947.7319	d	d	word	vis	31950	EB	9	4	0	26	237	154	4.974	4.974	vista	5.39	338	923	9	85	2.886	764	-117	2	2	4.944	4.4	5.842	1	724.4897959
94	accecante	EB_6	cnc	2	d	126	42	899.9478	d	d	word	vis	31950	EB	9	4	0	26	237	154	4.974	4.974	vista	5.39	338	923	9	85	2.886	764	-117	2	2	4.944	4.4	5.842	1	724.4897959
95	accecante	SC_22	cnc	1	d	31	42	1044.294	d	d	word	vis	31950	SC	9	4	0	26	237	154	4.974	4.974	vista	5.39	338	923	9	85	2.886	764	-117	2	2	4.944	4.4	5.842	1	724.4897959
96	accecante	EB_4	cnc	2	d	196	42	754.9059	d	d	word	vis	31950	EB	9	4	0	26	237	154	4.974	4.974	vista	5.39	338	923	9	85	2.886	764	-117	2	2	4.944	4.4	5.842	1	724.4897959
97	accecante	EB_12	cnc	1	d	82	42	886.4942	d	d	word	vis	31950	EB	9	4	0	26	237	154	4.974	4.974	vista	5.39	338	923	9	85	2.886	764	-117	2	2	4.944	4.4	5.842	1	724.4897959
98	accecante	SC_7	cnc	1	d	256	42	909	d	d	word	vis	31950	SC	9	4	0	26	237	154	4.974	4.974	vista	5.39	338	923	9	85	2.886	764	-117	2	2	4.944	4.4	5.842	1	724.4897959
99	accecante	EB_12	cnc	2	d	51	42	823.2088	d	d	word	vis	31950	EB	9	4	0	26	237	154	4.974	4.974	vista	5.39	338	923	9	85	2.886	764	-117	2	2	4.944	4.4	5.842	1	724.4897959
100	accecante	SC_2	cnc	2	d	75	42	777.0947	d	d	word	vis	31950	SC	9	4	0	26	237	154	4.974	4.974	vista	5.39	338	923	9	85	2.886	764	-117	2	2	4.944	4.4	5.842	1	724.4897959
101	accecante	EB_2	cnc	2	d	30	42	896.0102	d	d	word	vis	31950	EB	9	4	0	26	237	154	4.974	4.974	vista	5.39	338	923	9	85	2.886	764	-117	2	2	4.944	4.4	5.842	1	724.4897959
102	accecante	SC_17	cnc	2	d	223	42	886.3821	d	d	word	vis	31950	SC	9	4	0	26	237	154	4.974	4.974	vista	5.39	338	923	9	85	2.886	764	-117	2	2	4.944	4.4	5.842	1	724.4897959
103	accecante	SC_15	cnc	2	d	103	42	744.3053	d	d	word	vis	31950	SC	9	4	0	26	237	154	4.974	4.974	vista	5.39	338	923	9	85	2.886	764	-117	2	2	4.944	4.4	5.842	1	724.4897959
104	accecante	EB_14	cnc	2	d	138	42	1412.319	d	d	word	vis	31950	EB	9	4	0	26	237	154	4.974	4.974	vista	5.39	338	923	9	85	2.886	764	-117	2	2	4.944	4.4	5.842	1	724.4897959
105	accecante	EB_9	cnc	2	d	32	42	714.6887	d	d	word	vis	31950	EB	9	4	0	26	237	154	4.974	4.974	vista	5.39	338	923	9	85	2.886	764	-117	2	2	4.944	4.4	5.842	1	724.4897959
106	accecante	EB_7	cnc	1	d	162	42	1211.721	d	d	word	vis	31950	EB	9	4	0	26	237	154	4.974	4.974	vista	5.39	338	923	9	85	2.886	764	-117	2	2	4.944	4.4	5.842	1	724.4897959
107	accecante	SC_9	cnc	1	d	240	42	711.7401	d	d	word	vis	31950	SC	9	4	0	26	237	154	4.974	4.974	vista	5.39	338	923	9	85	2.886	764	-117	2	2	4.944	4.4	5.842	1	724.4897959
108	accecante	SC_12	cnc	2	d	7	42	1449.374	d	d	word	vis	31950	SC	9	4	0	26	237	154	4.974	4.974	vista	5.39	338	923	9	85	2.886	764	-117	2	2	4.944	4.4	5.842	1	724.4897959
109	accecante	EB_19	cnc	2	d	198	42	797	d	d	word	vis	31950	EB	9	4	0	26	237	154	4.974	4.974	vista	5.39	338	923	9	85	2.886	764	-117	2	2	4.944	4.4	5.842	1	724.4897959
110	accecante	EB_19	cnc	1	d	224	42	805	d	d	word	vis	31950	EB	9	4	0	26	237	154	4.974	4.974	vista	5.39	338	923	9	85	2.886	764	-117	2	2	4.944	4.4	5.842	1	724.4897959
111	accecante	SC_7	cnc	2	d	41	42	1020	d	d	word	vis	31950	SC	9	4	0	26	237	154	4.974	4.974	vista	5.39	338	923	9	85	2.886	764	-117	2	2	4.944	4.4	5.842	1	724.4897959
112	accecante	SC_13	cnc	2	d	172	42	789.5667	d	d	word	vis	31950	SC	9	4	0	26	237	154	4.974	4.974	vista	5.39	338	923	9	85	2.886	764	-117	2	2	4.944	4.4	5.842	1	724.4897959
113	accecante	EB_10	cnc	1	s	63	42	971.3832	s	s	word	vis	31950	EB	9	4	0	26	237	154	4.974	4.974	vista	5.39	338	923	9	85	2.886	764	-117	2	2	4.944	4.4	5.842	1	724.4897959
114	accecante	SC_6	cnc	1	d	159	42	854.2	d	d	word	vis	31950	SC	9	4	0	26	237	154	4.974	4.974	vista	5.39	338	923	9	85	2.886	764	-117	2	2	4.944	4.4	5.842	1	724.4897959
115	accecante	SC_21	cnc	1	s	89	42	928.067	s	s	word	vis	31950	SC	9	4	0	26	237	154	4.974	4.974	vista	5.39	338	923	9	85	2.886	764	-117	2	2	4.944	4.4	5.842	1	724.4897959
116	accecante	SC_20	cnc	2	d	186	42	885.7438	d	d	word	vis	31950	SC	9	4	0	26	237	154	4.974	4.974	vista	5.39	338	923	9	85	2.886	764	-117	2	2	4.944	4.4	5.842	1	724.4897959
117	accecante	EB_4	cnc	1	d	196	42	1115.703	d	d	word	vis	31950	EB	9	4	0	26	237	154	4.974	4.974	vista	5.39	338	923	9	85	2.886	764	-117	2	2	4.944	4.4	5.842	1	724.4897959
118	accecante	SC_5	cnc	2	d	192	42	773.3574	d	d	word	vis	31950	SC	9	4	0	26	237	154	4.974	4.974	vista	5.39	338	923	9	85	2.886	764	-117	2	2	4.944	4.4	5.842	1	724.4897959
119	accecante	SC_20	cnc	1	d	38	42	885.9496	d	d	word	vis	31950	SC	9	4	0	26	237	154	4.974	4.974	vista	5.39	338	923	9	85	2.886	764	-117	2	2	4.944	4.4	5.842	1	724.4897959
120	accecante	SC_19	cnc	2	d	197	42	622.6358	d	d	word	vis	31950	SC	9	4	0	26	237	154	4.974	4.974	vista	5.39	338	923	9	85	2.886	764	-117	2	2	4.944	4.4	5.842	1	724.4897959
121	accecante	EB_8	cnc	2	d	106	42	976.9564	d	d	word	vis	31950	EB	9	4	0	26	237	154	4.974	4.974	vista	5.39	338	923	9	85	2.886	764	-117	2	2	4.944	4.4	5.842	1	724.4897959
122	accecante	SC_22	cnc	2	d	115	42	932.9035	d	d	word	vis	31950	SC	9	4	0	26	237	154	4.974	4.974	vista	5.39	338	923	9	85	2.886	764	-117	2	2	4.944	4.4	5.842	1	724.4897959
123	accecante	SC_14	cnc	2	d	12	42	778.699	d	d	word	vis	31950	SC	9	4	0	26	237	154	4.974	4.974	vista	5.39	338	923	9	85	2.886	764	-117	2	2	4.944	4.4	5.842	1	724.4897959
124	accecante	EB_1	cnc	1	d	126	42	1081.188	d	d	word	vis	31950	EB	9	4	0	26	237	154	4.974	4.974	vista	5.39	338	923	9	85	2.886	764	-117	2	2	4.944	4.4	5.842	1	724.4897959
125	accecante	EB_13	cnc	1	d	164	42	1043.913	d	d	word	vis	31950	EB	9	4	0	26	237	154	4.974	4.974	vista	5.39	338	923	9	85	2.886	764	-117	2	2	4.944	4.4	5.842	1	724.4897959
126	accecante	SC_4	cnc	2	d	104	42	697.0017	d	d	word	vis	31950	SC	9	4	0	26	237	154	4.974	4.974	vista	5.39	338	923	9	85	2.886	764	-117	2	2	4.944	4.4	5.842	1	724.4897959
127	accecante	EB_6	cnc	1	d	91	42	1092.683	d	d	word	vis	31950	EB	9	4	0	26	237	154	4.974	4.974	vista	5.39	338	923	9	85	2.886	764	-117	2	2	4.944	4.4	5.842	1	724.4897959
128	accecante	EB_3	cnc	2	d	68	42	976.3161	d	d	word	vis	31950	EB	9	4	0	26	237	154	4.974	4.974	vista	5.39	338	923	9	85	2.886	764	-117	2	2	4.944	4.4	5.842	1	724.4897959
129	accecante	EB_11	cnc	1	d	144	42	1082.978	d	d	word	vis	31950	EB	9	4	0	26	237	154	4.974	4.974	vista	5.39	338	923	9	85	2.886	764	-117	2	2	4.944	4.4	5.842	1	724.4897959
130	accecante	SC_6	cnc	2	d	126	42	771.2912	d	d	word	vis	31950	SC	9	4	0	26	237	154	4.974	4.974	vista	5.39	338	923	9	85	2.886	764	-117	2	2	4.944	4.4	5.842	1	724.4897959
131	accecante	EB_2	cnc	1	d	138	42	1025.953	d	d	word	vis	31950	EB	9	4	0	26	237	154	4.974	4.974	vista	5.39	338	923	9	85	2.886	764	-117	2	2	4.944	4.4	5.842	1	724.4897959
132	accecante	SC_3	cnc	2	s	197	42	841.4958	s	s	word	vis	31950	SC	9	4	0	26	237	154	4.974	4.974	vista	5.39	338	923	9	85	2.886	764	-117	2	2	4.944	4.4	5.842	1	724.4897959
133	accecante	EB_16	cnc	2	d	192	42	824.5714	d	d	word	vis	31950	EB	9	4	0	26	237	154	4.974	4.974	vista	5.39	338	923	9	85	2.886	764	-117	2	2	4.944	4.4	5.842	1	724.4897959
134	accecante	EB_1	cnc	2	d	64	42	1057.648	d	d	word	vis	31950	EB	9	4	0	26	237	154	4.974	4.974	vista	5.39	338	923	9	85	2.886	764	-117	2	2	4.944	4.4	5.842	1	724.4897959
135	accecante	EB_17	cnc	1	d	235	42	775.6162	d	d	word	vis	31950	EB	9	4	0	26	237	154	4.974	4.974	vista	5.39	338	923	9	85	2.886	764	-117	2	2	4.944	4.4	5.842	1	724.4897959
136	accecante	SC_8	cnc	1	d	244	42	963	d	d	word	vis	31950	SC	9	4	0	26	237	154	4.974	4.974	vista	5.39	338	923	9	85	2.886	764	-117	2	2	4.944	4.4	5.842	1	724.4897959
137	accecante	SC_5	cnc	1	d	71	42	928.3336	d	d	word	vis	31950	SC	9	4	0	26	237	154	4.974	4.974	vista	5.39	338	923	9	85	2.886	764	-117	2	2	4.944	4.4	5.842	1	724.4897959
138	accecante	SC_18	cnc	2	d	196	42	1108.638	d	d	word	vis	31950	SC	9	4	0	26	237	154	4.974	4.974	vista	5.39	338	923	9	85	2.886	764	-117	2	2	4.944	4.4	5.842	1	724.4897959
139	accecante	SC_2	cnc	1	d	137	42	820.3305	d	d	word	vis	31950	SC	9	4	0	26	237	154	4.974	4.974	vista	5.39	338	923	9	85	2.886	764	-117	2	2	4.944	4.4	5.842	1	724.4897959
140	accecante	EB_15	cnc	2	d	209	42	1110	d	d	word	vis	31950	EB	9	4	0	26	237	154	4.974	4.974	vista	5.39	338	923	9	85	2.886	764	-117	2	2	4.944	4.4	5.842	1	724.4897959
141	accecante	EB_15	cnc	1	d	198	42	985.7234	d	d	word	vis	31950	EB	9	4	0	26	237	154	4.974	4.974	vista	5.39	338	923	9	85	2.886	764	-117	2	2	4.944	4.4	5.842	1	724.4897959
142	accecante	SC_16	cnc	1	d	180	42	979.7891	d	d	word	vis	31950	SC	9	4	0	26	237	154	4.974	4.974	vista	5.39	338	923	9	85	2.886	764	-117	2	2	4.944	4.4	5.842	1	724.4897959
143	accecante	EB_21	cnc	2	d	64	42	863.9569	d	d	word	vis	31950	EB	9	4	0	26	237	154	4.974	4.974	vista	5.39	338	923	9	85	2.886	764	-117	2	2	4.944	4.4	5.842	1	724.4897959
144	accecante	EB_18	cnc	1	d	111	42	1182.21	d	d	word	vis	31950	EB	9	4	0	26	237	154	4.974	4.974	vista	5.39	338	923	9	85	2.886	764	-117	2	2	4.944	4.4	5.842	1	724.4897959
145	accecante	SC_21	cnc	2	s	153	42	845.4342	s	s	word	vis	31950	SC	9	4	0	26	237	154	4.974	4.974	vista	5.39	338	923	9	85	2.886	764	-117	2	2	4.944	4.4	5.842	1	724.4897959
146	accecante	EB_9	cnc	1	d	221	42	824.5218	d	d	word	vis	31950	EB	9	4	0	26	237	154	4.974	4.974	vista	5.39	338	923	9	85	2.886	764	-117	2	2	4.944	4.4	5.842	1	724.4897959
147	accecante	SC_13	cnc	1	d	269	42	673.7166	d	d	word	vis	31950	SC	9	4	0	26	237	154	4.974	4.974	vista	5.39	338	923	9	85	2.886	764	-117	2	2	4.944	4.4	5.842	1	724.4897959
148	accecante	SC_1	cnc	2	d	226	42	670	d	d	word	vis	31950	SC	9	4	0	26	237	154	4.974	4.974	vista	5.39	338	923	9	85	2.886	764	-117	2	2	4.944	4.4	5.842	1	724.4897959
149	accecante	SC_10	cnc	1	d	188	42	878.9198	d	d	word	vis	31950	SC	9	4	0	26	237	154	4.974	4.974	vista	5.39	338	923	9	85	2.886	764	-117	2	2	4.944	4.4	5.842	1	724.4897959
150	accecante	EB_13	cnc	2	d	154	42	839.7421	d	d	word	vis	31950	EB	9	4	0	26	237	154	4.974	4.974	vista	5.39	338	923	9	85	2.886	764	-117	2	2	4.944	4.4	5.842	1	724.4897959
151	accecante	EB_16	cnc	1	d	143	42	890.3496	d	d	word	vis	31950	EB	9	4	0	26	237	154	4.974	4.974	vista	5.39	338	923	9	85	2.886	764	-117	2	2	4.944	4.4	5.842	1	724.4897959
152	accecante	SC_17	cnc	1	d	45	42	902.9543	d	d	word	vis	31950	SC	9	4	0	26	237	154	4.974	4.974	vista	5.39	338	923	9	85	2.886	764	-117	2	2	4.944	4.4	5.842	1	724.4897959
153	accecante	EB_5	cnc	1	d	75	42	1242.065	d	d	word	vis	31950	EB	9	4	0	26	237	154	4.974	4.974	vista	5.39	338	923	9	85	2.886	764	-117	2	2	4.944	4.4	5.842	1	724.4897959
154	accecante	SC_10	cnc	2	d	173	42	903.9464	d	d	word	vis	31950	SC	9	4	0	26	237	154	4.974	4.974	vista	5.39	338	923	9	85	2.886	764	-117	2	2	4.944	4.4	5.842	1	724.4897959
155	accecante	EB_3	cnc	1	d	149	42	798.1567	d	d	word	vis	31950	EB	9	4	0	26	237	154	4.974	4.974	vista	5.39	338	923	9	85	2.886	764	-117	2	2	4.944	4.4	5.842	1	724.4897959
156	accecante	SC_12	cnc	1	d	230	42	1250	d	d	word	vis	31950	SC	9	4	0	26	237	154	4.974	4.974	vista	5.39	338	923	9	85	2.886	764	-117	2	2	4.944	4.4	5.842	1	724.4897959
157	accecante	EB_18	cnc	2	d	117	42	1050	d	d	word	vis	31950	EB	9	4	0	26	237	154	4.974	4.974	vista	5.39	338	923	9	85	2.886	764	-117	2	2	4.944	4.4	5.842	1	724.4897959
158	accecante	SC_9	cnc	2	d	216	42	761.8973	d	d	word	vis	31950	SC	9	4	0	26	237	154	4.974	4.974	vista	5.39	338	923	9	85	2.886	764	-117	2	2	4.944	4.4	5.842	1	724.4897959
159	accecante	EB_14	cnc	1	d	184	42	1476.459	d	d	word	vis	31950	EB	9	4	0	26	237	154	4.974	4.974	vista	5.39	338	923	9	85	2.886	764	-117	2	2	4.944	4.4	5.842	1	724.4897959
160	accecante	SC_8	cnc	2	d	9	42	862	d	d	word	vis	31950	SC	9	4	0	26	237	154	4.974	4.974	vista	5.39	338	923	9	85	2.886	764	-117	2	2	4.944	4.4	5.842	1	724.4897959
161	accecante	EB_21	cnc	1	d	129	42	1016.47	d	d	word	vis	31950	EB	9	4	0	26	237	154	4.974	4.974	vista	5.39	338	923	9	85	2.886	764	-117	2	2	4.944	4.4	5.842	1	724.4897959
162	accecante	SC_15	cnc	1	d	244	42	830.0104	d	d	word	vis	31950	SC	9	4	0	26	237	154	4.974	4.974	vista	5.39	338	923	9	85	2.886	764	-117	2	2	4.944	4.4	5.842	1	724.4897959
163	accecante	EB_8	cnc	1	d	107	42	852.2488	d	d	word	vis	31950	EB	9	4	0	26	237	154	4.974	4.974	vista	5.39	338	923	9	85	2.886	764	-117	2	2	4.944	4.4	5.842	1	724.4897959
164	accecante	EB_20	cnc	1	d	240	42	919.9593	d	d	word	vis	31950	EB	9	4	0	26	237	154	4.974	4.974	vista	5.39	338	923	9	85	2.886	764	-117	2	2	4.944	4.4	5.842	1	724.4897959
165	accecante	EB_20	cnc	2	d	174	42	881.1696	d	d	word	vis	31950	EB	9	4	0	26	237	154	4.974	4.974	vista	5.39	338	923	9	85	2.886	764	-117	2	2	4.944	4.4	5.842	1	724.4897959
166	accecante	EB_17	cnc	2	d	77	42	843.7198	d	d	word	vis	31950	EB	9	4	0	26	237	154	4.974	4.974	vista	5.39	338	923	9	85	2.886	764	-117	2	2	4.944	4.4	5.842	1	724.4897959
167	accecante	SC_16	cnc	2	d	224	42	740.0687	d	d	word	vis	31950	SC	9	4	0	26	237	154	4.974	4.974	vista	5.39	338	923	9	85	2.886	764	-117	2	2	4.944	4.4	5.842	1	724.4897959
168	accecante	SC_4	cnc	1	d	55	42	788.2365	d	d	word	vis	31950	SC	9	4	0	26	237	154	4.974	4.974	vista	5.39	338	923	9	85	2.886	764	-117	2	2	4.944	4.4	5.842	1	724.4897959
169	acenzo	EB_6	cnc	2	d	135	121	992.0493	s	s	nword	pseudow	26250	EB	0	0	0	0	0	0	0	0	xxx	0	0	0	0	0	0	0	0	0	0	0	0	0	1	595.2380952
170	acenzo	SC_19	cnc	2	d	52	121	956.4051	s	s	nword	pseudow	26250	SC	0	0	0	0	0	0	0	0	xxx	0	0	0	0	0	0	0	0	0	0	0	0	0	1	595.2380952
171	acenzo	EB_12	cnc	1	d	234	121	911.8491	s	s	nword	pseudow	26250	EB	0	0	0	0	0	0	0	0	xxx	0	0	0	0	0	0	0	0	0	0	0	0	0	1	595.2380952
172	acenzo	SC_14	cnc	2	d	28	121	937.8101	s	s	nword	pseudow	26250	SC	0	0	0	0	0	0	0	0	xxx	0	0	0	0	0	0	0	0	0	0	0	0	0	1	595.2380952
173	acenzo	SC_5	cnc	1	d	252	121	851.6805	s	s	nword	pseudow	26250	SC	0	0	0	0	0	0	0	0	xxx	0	0	0	0	0	0	0	0	0	0	0	0	0	1	595.2380952
174	acenzo	SC_18	cnc	1	d	116	121	828.7105	s	s	nword	pseudow	26250	SC	0	0	0	0	0	0	0	0	xxx	0	0	0	0	0	0	0	0	0	0	0	0	0	1	595.2380952
175	acenzo	SC_8	cnc	1	d	65	121	1060	s	s	nword	pseudow	26250	SC	0	0	0	0	0	0	0	0	xxx	0	0	0	0	0	0	0	0	0	0	0	0	0	1	595.2380952
176	acenzo	SC_7	cnc	1	d	107	121	1240	s	s	nword	pseudow	26250	SC	0	0	0	0	0	0	0	0	xxx	0	0	0	0	0	0	0	0	0	0	0	0	0	1	595.2380952
177	acenzo	SC_20	cnc	2	d	218	121	871.1574	s	s	nword	pseudow	26250	SC	0	0	0	0	0	0	0	0	xxx	0	0	0	0	0	0	0	0	0	0	0	0	0	1	595.2380952
178	acenzo	EB_7	cnc	2	d	180	121	1087.346	s	s	nword	pseudow	26250	EB	0	0	0	0	0	0	0	0	xxx	0	0	0	0	0	0	0	0	0	0	0	0	0	1	595.2380952
179	acenzo	SC_6	cnc	1	d	85	121	984.5926	s	s	nword	pseudow	26250	SC	0	0	0	0	0	0	0	0	xxx	0	0	0	0	0	0	0	0	0	0	0	0	0	1	595.2380952
180	acenzo	EB_11	cnc	2	d	166	121	1030.95	s	s	nword	pseudow	26250	EB	0	0	0	0	0	0	0	0	xxx	0	0	0	0	0	0	0	0	0	0	0	0	0	1	595.2380952
181	acenzo	EB_21	cnc	1	d	232	121	946.4227	s	s	nword	pseudow	26250	EB	0	0	0	0	0	0	0	0	xxx	0	0	0	0	0	0	0	0	0	0	0	0	0	1	595.2380952
182	acenzo	SC_10	cnc	2	d	141	121	1333.304	s	s	nword	pseudow	26250	SC	0	0	0	0	0	0	0	0	xxx	0	0	0	0	0	0	0	0	0	0	0	0	0	1	595.2380952
183	acenzo	SC_13	cnc	2	d	232	121	710.8567	s	s	nword	pseudow	26250	SC	0	0	0	0	0	0	0	0	xxx	0	0	0	0	0	0	0	0	0	0	0	0	0	1	595.2380952
184	acenzo	EB_13	cnc	1	d	256	121	890.8424	s	s	nword	pseudow	26250	EB	0	0	0	0	0	0	0	0	xxx	0	0	0	0	0	0	0	0	0	0	0	0	0	1	595.2380952
185	acenzo	EB_20	cnc	1	d	262	121	1036.849	s	s	nword	pseudow	26250	EB	0	0	0	0	0	0	0	0	xxx	0	0	0	0	0	0	0	0	0	0	0	0	0	1	595.2380952
186	acenzo	SC_17	cnc	1	d	145	121	1028.085	s	s	nword	pseudow	26250	SC	0	0	0	0	0	0	0	0	xxx	0	0	0	0	0	0	0	0	0	0	0	0	0	1	595.2380952
187	acenzo	SC_3	cnc	1	s	227	121	886.4038	d	d	nword	pseudow	26250	SC	0	0	0	0	0	0	0	0	xxx	0	0	0	0	0	0	0	0	0	0	0	0	0	1	595.2380952
188	acenzo	EB_3	cnc	1	d	32	121	903.2979	s	s	nword	pseudow	26250	EB	0	0	0	0	0	0	0	0	xxx	0	0	0	0	0	0	0	0	0	0	0	0	0	1	595.2380952
189	acenzo	EB_9	cnc	2	d	150	121	897.2347	s	s	nword	pseudow	26250	EB	0	0	0	0	0	0	0	0	xxx	0	0	0	0	0	0	0	0	0	0	0	0	0	1	595.2380952
190	acenzo	EB_17	cnc	2	d	71	121	1049.992	s	s	nword	pseudow	26250	EB	0	0	0	0	0	0	0	0	xxx	0	0	0	0	0	0	0	0	0	0	0	0	0	1	595.2380952
191	acenzo	EB_8	cnc	2	d	238	121	818.3183	s	s	nword	pseudow	26250	EB	0	0	0	0	0	0	0	0	xxx	0	0	0	0	0	0	0	0	0	0	0	0	0	1	595.2380952
192	acenzo	EB_16	cnc	2	d	216	121	809.6401	s	s	nword	pseudow	26250	EB	0	0	0	0	0	0	0	0	xxx	0	0	0	0	0	0	0	0	0	0	0	0	0	1	595.2380952
193	acenzo	EB_14	cnc	1	d	137	121	960.3917	s	s	nword	pseudow	26250	EB	0	0	0	0	0	0	0	0	xxx	0	0	0	0	0	0	0	0	0	0	0	0	0	1	595.2380952
194	acenzo	SC_13	cnc	1	d	58	121	890.8853	s	s	nword	pseudow	26250	SC	0	0	0	0	0	0	0	0	xxx	0	0	0	0	0	0	0	0	0	0	0	0	0	1	595.2380952
195	acenzo	EB_8	cnc	1	d	256	121	959.7406	s	s	nword	pseudow	26250	EB	0	0	0	0	0	0	0	0	xxx	0	0	0	0	0	0	0	0	0	0	0	0	0	1	595.2380952
196	acenzo	SC_15	cnc	2	d	225	121	729.7025	s	s	nword	pseudow	26250	SC	0	0	0	0	0	0	0	0	xxx	0	0	0	0	0	0	0	0	0	0	0	0	0	1	595.2380952
197	acenzo	SC_15	cnc	1	d	118	121	866.3382	s	s	nword	pseudow	26250	SC	0	0	0	0	0	0	0	0	xxx	0	0	0	0	0	0	0	0	0	0	0	0	0	1	595.2380952
198	acenzo	SC_7	cnc	2	d	19	121	1060	s	s	nword	pseudow	26250	SC	0	0	0	0	0	0	0	0	xxx	0	0	0	0	0	0	0	0	0	0	0	0	0	1	595.2380952
199	acenzo	EB_14	cnc	2	d	70	121	980.9748	s	s	nword	pseudow	26250	EB	0	0	0	0	0	0	0	0	xxx	0	0	0	0	0	0	0	0	0	0	0	0	0	1	595.2380952
200	acenzo	SC_8	cnc	2	d	211	121	864	s	s	nword	pseudow	26250	SC	0	0	0	0	0	0	0	0	xxx	0	0	0	0	0	0	0	0	0	0	0	0	0	1	595.2380952
201	acenzo	EB_18	cnc	2	d	81	121	1190	s	s	nword	pseudow	26250	EB	0	0	0	0	0	0	0	0	xxx	0	0	0	0	0	0	0	0	0	0	0	0	0	1	595.2380952
202	acenzo	EB_9	cnc	1	d	61	121	1052.631	s	s	nword	pseudow	26250	EB	0	0	0	0	0	0	0	0	xxx	0	0	0	0	0	0	0	0	0	0	0	0	0	1	595.2380952
203	acenzo	SC_4	cnc	2	d	150	121	961.8163	s	s	nword	pseudow	26250	SC	0	0	0	0	0	0	0	0	xxx	0	0	0	0	0	0	0	0	0	0	0	0	0	1	595.2380952
204	acenzo	SC_9	cnc	1	d	268	121	869.0944	s	s	nword	pseudow	26250	SC	0	0	0	0	0	0	0	0	xxx	0	0	0	0	0	0	0	0	0	0	0	0	0	1	595.2380952
205	acenzo	SC_1	cnc	1	d	220	121	860.2316	s	s	nword	pseudow	26250	SC	0	0	0	0	0	0	0	0	xxx	0	0	0	0	0	0	0	0	0	0	0	0	0	1	595.2380952
206	acenzo	EB_2	cnc	2	d	131	121	825.5927	s	s	nword	pseudow	26250	EB	0	0	0	0	0	0	0	0	xxx	0	0	0	0	0	0	0	0	0	0	0	0	0	1	595.2380952
207	acenzo	SC_1	cnc	2	d	165	121	851	s	s	nword	pseudow	26250	SC	0	0	0	0	0	0	0	0	xxx	0	0	0	0	0	0	0	0	0	0	0	0	0	1	595.2380952
208	acenzo	EB_5	cnc	2	d	159	121	858.2323	s	s	nword	pseudow	26250	EB	0	0	0	0	0	0	0	0	xxx	0	0	0	0	0	0	0	0	0	0	0	0	0	1	595.2380952
209	acenzo	SC_18	cnc	2	d	74	121	1015.589	s	s	nword	pseudow	26250	SC	0	0	0	0	0	0	0	0	xxx	0	0	0	0	0	0	0	0	0	0	0	0	0	1	595.2380952
210	acenzo	EB_11	cnc	1	d	100	121	1297.19	s	s	nword	pseudow	26250	EB	0	0	0	0	0	0	0	0	xxx	0	0	0	0	0	0	0	0	0	0	0	0	0	1	595.2380952
211	acenzo	SC_17	cnc	2	d	106	121	994.3606	s	s	nword	pseudow	26250	SC	0	0	0	0	0	0	0	0	xxx	0	0	0	0	0	0	0	0	0	0	0	0	0	1	595.2380952
212	acenzo	EB_18	cnc	1	d	112	121	1474.581	s	s	nword	pseudow	26250	EB	0	0	0	0	0	0	0	0	xxx	0	0	0	0	0	0	0	0	0	0	0	0	0	1	595.2380952
213	acenzo	EB_19	cnc	2	d	33	121	784	s	s	nword	pseudow	26250	EB	0	0	0	0	0	0	0	0	xxx	0	0	0	0	0	0	0	0	0	0	0	0	0	1	595.2380952
214	acenzo	SC_19	cnc	1	d	215	121	938.2349	s	s	nword	pseudow	26250	SC	0	0	0	0	0	0	0	0	xxx	0	0	0	0	0	0	0	0	0	0	0	0	0	1	595.2380952
215	acenzo	EB_4	cnc	2	d	126	121	864.2129	s	s	nword	pseudow	26250	EB	0	0	0	0	0	0	0	0	xxx	0	0	0	0	0	0	0	0	0	0	0	0	0	1	595.2380952
216	acenzo	SC_21	cnc	2	s	199	121	821.2471	d	d	nword	pseudow	26250	SC	0	0	0	0	0	0	0	0	xxx	0	0	0	0	0	0	0	0	0	0	0	0	0	1	595.2380952
217	acenzo	EB_12	cnc	2	d	147	121	723.979	s	s	nword	pseudow	26250	EB	0	0	0	0	0	0	0	0	xxx	0	0	0	0	0	0	0	0	0	0	0	0	0	1	595.2380952
218	acenzo	EB_15	cnc	2	d	120	121	101	d	s	nword	pseudow	26250	EB	0	0	0	0	0	0	0	0	xxx	0	0	0	0	0	0	0	0	0	0	0	0	0	0	595.2380952
219	acenzo	EB_10	cnc	2	s	118	121	1011.683	d	d	nword	pseudow	26250	EB	0	0	0	0	0	0	0	0	xxx	0	0	0	0	0	0	0	0	0	0	0	0	0	1	595.2380952
220	acenzo	SC_5	cnc	2	d	100	121	882.2452	s	s	nword	pseudow	26250	SC	0	0	0	0	0	0	0	0	xxx	0	0	0	0	0	0	0	0	0	0	0	0	0	1	595.2380952
221	acenzo	EB_1	cnc	2	d	231	121	1013.525	s	s	nword	pseudow	26250	EB	0	0	0	0	0	0	0	0	xxx	0	0	0	0	0	0	0	0	0	0	0	0	0	1	595.2380952
222	acenzo	SC_12	cnc	1	d	72	121	690	s	s	nword	pseudow	26250	SC	0	0	0	0	0	0	0	0	xxx	0	0	0	0	0	0	0	0	0	0	0	0	0	1	595.2380952
223	acenzo	EB_10	cnc	1	s	74	121	1005.807	d	d	nword	pseudow	26250	EB	0	0	0	0	0	0	0	0	xxx	0	0	0	0	0	0	0	0	0	0	0	0	0	1	595.2380952
224	acenzo	SC_4	cnc	1	d	264	121	854.2171	s	s	nword	pseudow	26250	SC	0	0	0	0	0	0	0	0	xxx	0	0	0	0	0	0	0	0	0	0	0	0	0	1	595.2380952
225	acenzo	SC_2	cnc	2	d	36	121	929.7275	s	s	nword	pseudow	26250	SC	0	0	0	0	0	0	0	0	xxx	0	0	0	0	0	0	0	0	0	0	0	0	0	1	595.2380952
226	acenzo	SC_20	cnc	1	d	195	121	1034.649	s	s	nword	pseudow	26250	SC	0	0	0	0	0	0	0	0	xxx	0	0	0	0	0	0	0	0	0	0	0	0	0	1	595.2380952
227	acenzo	EB_7	cnc	1	d	161	121	1297.6	s	s	nword	pseudow	26250	EB	0	0	0	0	0	0	0	0	xxx	0	0	0	0	0	0	0	0	0	0	0	0	0	1	595.2380952
228	acenzo	SC_22	cnc	1	d	40	121	979.7087	s	s	nword	pseudow	26250	SC	0	0	0	0	0	0	0	0	xxx	0	0	0	0	0	0	0	0	0	0	0	0	0	1	595.2380952
229	acenzo	EB_6	cnc	1	d	241	121	1003.55	s	s	nword	pseudow	26250	EB	0	0	0	0	0	0	0	0	xxx	0	0	0	0	0	0	0	0	0	0	0	0	0	1	595.2380952
230	acenzo	EB_15	cnc	1	d	220	121	1519.428	s	s	nword	pseudow	26250	EB	0	0	0	0	0	0	0	0	xxx	0	0	0	0	0	0	0	0	0	0	0	0	0	1	595.2380952
231	acenzo	SC_21	cnc	1	s	172	121	974.5312	d	d	nword	pseudow	26250	SC	0	0	0	0	0	0	0	0	xxx	0	0	0	0	0	0	0	0	0	0	0	0	0	1	595.2380952
232	acenzo	EB_4	cnc	1	d	132	121	1091.037	s	s	nword	pseudow	26250	EB	0	0	0	0	0	0	0	0	xxx	0	0	0	0	0	0	0	0	0	0	0	0	0	1	595.2380952
233	acenzo	SC_3	cnc	2	s	215	121	800.6634	d	d	nword	pseudow	26250	SC	0	0	0	0	0	0	0	0	xxx	0	0	0	0	0	0	0	0	0	0	0	0	0	1	595.2380952
234	acenzo	EB_13	cnc	2	d	113	121	874.8346	s	s	nword	pseudow	26250	EB	0	0	0	0	0	0	0	0	xxx	0	0	0	0	0	0	0	0	0	0	0	0	0	1	595.2380952
235	acenzo	SC_10	cnc	1	d	107	121	1108.588	s	s	nword	pseudow	26250	SC	0	0	0	0	0	0	0	0	xxx	0	0	0	0	0	0	0	0	0	0	0	0	0	1	595.2380952
236	acenzo	SC_12	cnc	2	d	85	121	963.2923	s	s	nword	pseudow	26250	SC	0	0	0	0	0	0	0	0	xxx	0	0	0	0	0	0	0	0	0	0	0	0	0	1	595.2380952
237	acenzo	SC_2	cnc	1	d	102	121	820.6453	s	s	nword	pseudow	26250	SC	0	0	0	0	0	0	0	0	xxx	0	0	0	0	0	0	0	0	0	0	0	0	0	1	595.2380952
238	acenzo	SC_9	cnc	2	d	28	121	917.8023	s	s	nword	pseudow	26250	SC	0	0	0	0	0	0	0	0	xxx	0	0	0	0	0	0	0	0	0	0	0	0	0	1	595.2380952
239	acenzo	EB_3	cnc	2	d	188	121	773.2994	s	s	nword	pseudow	26250	EB	0	0	0	0	0	0	0	0	xxx	0	0	0	0	0	0	0	0	0	0	0	0	0	1	595.2380952
240	acenzo	EB_16	cnc	1	d	69	121	830.3809	s	s	nword	pseudow	26250	EB	0	0	0	0	0	0	0	0	xxx	0	0	0	0	0	0	0	0	0	0	0	0	0	1	595.2380952
241	acenzo	EB_5	cnc	1	d	142	121	1038.279	s	s	nword	pseudow	26250	EB	0	0	0	0	0	0	0	0	xxx	0	0	0	0	0	0	0	0	0	0	0	0	0	1	595.2380952
242	acenzo	SC_22	cnc	2	d	43	121	888.4741	s	s	nword	pseudow	26250	SC	0	0	0	0	0	0	0	0	xxx	0	0	0	0	0	0	0	0	0	0	0	0	0	1	595.2380952
243	acenzo	EB_20	cnc	2	d	21	121	1332.379	s	s	nword	pseudow	26250	EB	0	0	0	0	0	0	0	0	xxx	0	0	0	0	0	0	0	0	0	0	0	0	0	1	595.2380952
244	acenzo	SC_14	cnc	1	d	113	121	997.9794	s	s	nword	pseudow	26250	SC	0	0	0	0	0	0	0	0	xxx	0	0	0	0	0	0	0	0	0	0	0	0	0	1	595.2380952
245	acenzo	EB_21	cnc	2	d	183	121	943.3109	s	s	nword	pseudow	26250	EB	0	0	0	0	0	0	0	0	xxx	0	0	0	0	0	0	0	0	0	0	0	0	0	1	595.2380952
246	acenzo	EB_19	cnc	1	d	72	121	802	s	s	nword	pseudow	26250	EB	0	0	0	0	0	0	0	0	xxx	0	0	0	0	0	0	0	0	0	0	0	0	0	1	595.2380952
247	acenzo	EB_2	cnc	1	d	116	121	1141.298	s	s	nword	pseudow	26250	EB	0	0	0	0	0	0	0	0	xxx	0	0	0	0	0	0	0	0	0	0	0	0	0	1	595.2380952
248	acenzo	SC_6	cnc	2	d	43	121	792.0474	s	s	nword	pseudow	26250	SC	0	0	0	0	0	0	0	0	xxx	0	0	0	0	0	0	0	0	0	0	0	0	0	1	595.2380952
249	acenzo	EB_17	cnc	1	d	86	121	997.4069	s	s	nword	pseudow	26250	EB	0	0	0	0	0	0	0	0	xxx	0	0	0	0	0	0	0	0	0	0	0	0	0	1	595.2380952
250	acenzo	SC_16	cnc	2	d	91	121	1103.092	s	s	nword	pseudow	26250	SC	0	0	0	0	0	0	0	0	xxx	0	0	0	0	0	0	0	0	0	0	0	0	0	1	595.2380952
251	acenzo	EB_1	cnc	1	d	83	121	2021.391	s	s	nword	pseudow	26250	EB	0	0	0	0	0	0	0	0	xxx	0	0	0	0	0	0	0	0	0	0	0	0	0	1	595.2380952
252	acenzo	SC_16	cnc	1	d	155	121	1757.527	s	s	nword	pseudow	26250	SC	0	0	0	0	0	0	0	0	xxx	0	0	0	0	0	0	0	0	0	0	0	0	0	1	595.2380952
253	acerbo	EB_10	cnc	2	s	124	82	1037.17	s	s	word	multi	24219	EB	6	3	4.879	2.353	1.147	206	3.176	4.879	gusto	11.761	1.338	397	6	15	2.169	0.14	-853	3	1.8	5.211	4.471	6.053	1	549.1836735
254	acerbo	SC_6	cnc	1	d	95	82	727.8935	d	d	word	multi	24219	SC	6	3	4.879	2.353	1.147	206	3.176	4.879	gusto	11.761	1.338	397	6	15	2.169	0.14	-853	3	1.8	5.211	4.471	6.053	1	549.1836735
255	acerbo	EB_18	cnc	2	d	226	82	845	d	d	word	multi	24219	EB	6	3	4.879	2.353	1.147	206	3.176	4.879	gusto	11.761	1.338	397	6	15	2.169	0.14	-853	3	1.8	5.211	4.471	6.053	1	549.1836735
256	acerbo	SC_14	cnc	1	d	211	82	706.2462	d	d	word	multi	24219	SC	6	3	4.879	2.353	1.147	206	3.176	4.879	gusto	11.761	1.338	397	6	15	2.169	0.14	-853	3	1.8	5.211	4.471	6.053	1	549.1836735
257	acerbo	SC_5	cnc	2	d	190	82	652.0917	d	d	word	multi	24219	SC	6	3	4.879	2.353	1.147	206	3.176	4.879	gusto	11.761	1.338	397	6	15	2.169	0.14	-853	3	1.8	5.211	4.471	6.053	1	549.1836735
258	acerbo	EB_2	cnc	2	d	59	82	797.6266	d	d	word	multi	24219	EB	6	3	4.879	2.353	1.147	206	3.176	4.879	gusto	11.761	1.338	397	6	15	2.169	0.14	-853	3	1.8	5.211	4.471	6.053	1	549.1836735
259	acerbo	EB_4	cnc	2	d	3	82	791.5006	d	d	word	multi	24219	EB	6	3	4.879	2.353	1.147	206	3.176	4.879	gusto	11.761	1.338	397	6	15	2.169	0.14	-853	3	1.8	5.211	4.471	6.053	1	549.1836735
260	acerbo	SC_10	cnc	2	d	106	82	779.4793	d	d	word	multi	24219	SC	6	3	4.879	2.353	1.147	206	3.176	4.879	gusto	11.761	1.338	397	6	15	2.169	0.14	-853	3	1.8	5.211	4.471	6.053	1	549.1836735
261	acerbo	SC_14	cnc	2	d	94	82	650.253	d	d	word	multi	24219	SC	6	3	4.879	2.353	1.147	206	3.176	4.879	gusto	11.761	1.338	397	6	15	2.169	0.14	-853	3	1.8	5.211	4.471	6.053	1	549.1836735
262	acerbo	EB_7	cnc	2	d	36	82	1506.537	d	d	word	multi	24219	EB	6	3	4.879	2.353	1.147	206	3.176	4.879	gusto	11.761	1.338	397	6	15	2.169	0.14	-853	3	1.8	5.211	4.471	6.053	1	549.1836735
263	acerbo	EB_5	cnc	2	d	220	82	924.443	d	d	word	multi	24219	EB	6	3	4.879	2.353	1.147	206	3.176	4.879	gusto	11.761	1.338	397	6	15	2.169	0.14	-853	3	1.8	5.211	4.471	6.053	1	549.1836735
264	acerbo	EB_17	cnc	1	d	74	82	777.1784	d	d	word	multi	24219	EB	6	3	4.879	2.353	1.147	206	3.176	4.879	gusto	11.761	1.338	397	6	15	2.169	0.14	-853	3	1.8	5.211	4.471	6.053	1	549.1836735
265	acerbo	EB_19	cnc	2	d	60	82	633	d	d	word	multi	24219	EB	6	3	4.879	2.353	1.147	206	3.176	4.879	gusto	11.761	1.338	397	6	15	2.169	0.14	-853	3	1.8	5.211	4.471	6.053	1	549.1836735
266	acerbo	SC_2	cnc	2	d	205	82	711.229	d	d	word	multi	24219	SC	6	3	4.879	2.353	1.147	206	3.176	4.879	gusto	11.761	1.338	397	6	15	2.169	0.14	-853	3	1.8	5.211	4.471	6.053	1	549.1836735
267	acerbo	SC_13	cnc	2	d	153	82	670.2795	d	d	word	multi	24219	SC	6	3	4.879	2.353	1.147	206	3.176	4.879	gusto	11.761	1.338	397	6	15	2.169	0.14	-853	3	1.8	5.211	4.471	6.053	1	549.1836735
268	acerbo	EB_9	cnc	1	d	94	82	867.1892	d	d	word	multi	24219	EB	6	3	4.879	2.353	1.147	206	3.176	4.879	gusto	11.761	1.338	397	6	15	2.169	0.14	-853	3	1.8	5.211	4.471	6.053	1	549.1836735
269	acerbo	EB_12	cnc	1	d	35	82	956.2164	d	d	word	multi	24219	EB	6	3	4.879	2.353	1.147	206	3.176	4.879	gusto	11.761	1.338	397	6	15	2.169	0.14	-853	3	1.8	5.211	4.471	6.053	1	549.1836735
270	acerbo	SC_7	cnc	2	d	202	82	852	d	d	word	multi	24219	SC	6	3	4.879	2.353	1.147	206	3.176	4.879	gusto	11.761	1.338	397	6	15	2.169	0.14	-853	3	1.8	5.211	4.471	6.053	1	549.1836735
271	acerbo	SC_9	cnc	1	d	183	82	922.7397	d	d	word	multi	24219	SC	6	3	4.879	2.353	1.147	206	3.176	4.879	gusto	11.761	1.338	397	6	15	2.169	0.14	-853	3	1.8	5.211	4.471	6.053	1	549.1836735
272	acerbo	EB_6	cnc	2	d	32	82	738.936	d	d	word	multi	24219	EB	6	3	4.879	2.353	1.147	206	3.176	4.879	gusto	11.761	1.338	397	6	15	2.169	0.14	-853	3	1.8	5.211	4.471	6.053	1	549.1836735
273	acerbo	EB_11	cnc	1	d	153	82	831.079	d	d	word	multi	24219	EB	6	3	4.879	2.353	1.147	206	3.176	4.879	gusto	11.761	1.338	397	6	15	2.169	0.14	-853	3	1.8	5.211	4.471	6.053	1	549.1836735
274	acerbo	SC_8	cnc	2	d	35	82	761	d	d	word	multi	24219	SC	6	3	4.879	2.353	1.147	206	3.176	4.879	gusto	11.761	1.338	397	6	15	2.169	0.14	-853	3	1.8	5.211	4.471	6.053	1	549.1836735
275	acerbo	EB_16	cnc	1	d	119	82	625.5885	d	d	word	multi	24219	EB	6	3	4.879	2.353	1.147	206	3.176	4.879	gusto	11.761	1.338	397	6	15	2.169	0.14	-853	3	1.8	5.211	4.471	6.053	1	549.1836735
276	acerbo	SC_20	cnc	2	d	124	82	863.9053	d	d	word	multi	24219	SC	6	3	4.879	2.353	1.147	206	3.176	4.879	gusto	11.761	1.338	397	6	15	2.169	0.14	-853	3	1.8	5.211	4.471	6.053	1	549.1836735
277	acerbo	EB_5	cnc	1	d	35	82	900.8015	d	d	word	multi	24219	EB	6	3	4.879	2.353	1.147	206	3.176	4.879	gusto	11.761	1.338	397	6	15	2.169	0.14	-853	3	1.8	5.211	4.471	6.053	1	549.1836735
278	acerbo	EB_15	cnc	2	d	36	82	872	d	d	word	multi	24219	EB	6	3	4.879	2.353	1.147	206	3.176	4.879	gusto	11.761	1.338	397	6	15	2.169	0.14	-853	3	1.8	5.211	4.471	6.053	1	549.1836735
279	acerbo	EB_20	cnc	1	d	194	82	781.8123	d	d	word	multi	24219	EB	6	3	4.879	2.353	1.147	206	3.176	4.879	gusto	11.761	1.338	397	6	15	2.169	0.14	-853	3	1.8	5.211	4.471	6.053	1	549.1836735
280	acerbo	SC_15	cnc	2	d	31	82	679.0957	d	d	word	multi	24219	SC	6	3	4.879	2.353	1.147	206	3.176	4.879	gusto	11.761	1.338	397	6	15	2.169	0.14	-853	3	1.8	5.211	4.471	6.053	1	549.1836735
281	acerbo	SC_4	cnc	2	d	74	82	519.293	d	d	word	multi	24219	SC	6	3	4.879	2.353	1.147	206	3.176	4.879	gusto	11.761	1.338	397	6	15	2.169	0.14	-853	3	1.8	5.211	4.471	6.053	1	549.1836735
282	acerbo	SC_22	cnc	2	d	217	82	707.3189	d	d	word	multi	24219	SC	6	3	4.879	2.353	1.147	206	3.176	4.879	gusto	11.761	1.338	397	6	15	2.169	0.14	-853	3	1.8	5.211	4.471	6.053	1	549.1836735
283	acerbo	EB_18	cnc	1	d	234	82	1103.294	d	d	word	multi	24219	EB	6	3	4.879	2.353	1.147	206	3.176	4.879	gusto	11.761	1.338	397	6	15	2.169	0.14	-853	3	1.8	5.211	4.471	6.053	1	549.1836735
284	acerbo	EB_21	cnc	1	d	85	82	780.1309	d	d	word	multi	24219	EB	6	3	4.879	2.353	1.147	206	3.176	4.879	gusto	11.761	1.338	397	6	15	2.169	0.14	-853	3	1.8	5.211	4.471	6.053	1	549.1836735
285	acerbo	SC_19	cnc	1	d	266	82	839.1754	d	d	word	multi	24219	SC	6	3	4.879	2.353	1.147	206	3.176	4.879	gusto	11.761	1.338	397	6	15	2.169	0.14	-853	3	1.8	5.211	4.471	6.053	1	549.1836735
286	acerbo	SC_9	cnc	2	d	142	82	672.3597	d	d	word	multi	24219	SC	6	3	4.879	2.353	1.147	206	3.176	4.879	gusto	11.761	1.338	397	6	15	2.169	0.14	-853	3	1.8	5.211	4.471	6.053	1	549.1836735
287	acerbo	EB_6	cnc	1	d	61	82	986.0048	d	d	word	multi	24219	EB	6	3	4.879	2.353	1.147	206	3.176	4.879	gusto	11.761	1.338	397	6	15	2.169	0.14	-853	3	1.8	5.211	4.471	6.053	1	549.1836735
288	acerbo	SC_1	cnc	1	d	251	82	638.1493	d	d	word	multi	24219	SC	6	3	4.879	2.353	1.147	206	3.176	4.879	gusto	11.761	1.338	397	6	15	2.169	0.14	-853	3	1.8	5.211	4.471	6.053	1	549.1836735
289	acerbo	SC_8	cnc	1	d	93	82	878	d	d	word	multi	24219	SC	6	3	4.879	2.353	1.147	206	3.176	4.879	gusto	11.761	1.338	397	6	15	2.169	0.14	-853	3	1.8	5.211	4.471	6.053	1	549.1836735
290	acerbo	EB_1	cnc	2	d	114	82	932.8141	d	d	word	multi	24219	EB	6	3	4.879	2.353	1.147	206	3.176	4.879	gusto	11.761	1.338	397	6	15	2.169	0.14	-853	3	1.8	5.211	4.471	6.053	1	549.1836735
291	acerbo	SC_21	cnc	1	s	171	82	816.7404	s	s	word	multi	24219	SC	6	3	4.879	2.353	1.147	206	3.176	4.879	gusto	11.761	1.338	397	6	15	2.169	0.14	-853	3	1.8	5.211	4.471	6.053	1	549.1836735
292	acerbo	SC_17	cnc	2	d	193	82	927.119	d	d	word	multi	24219	SC	6	3	4.879	2.353	1.147	206	3.176	4.879	gusto	11.761	1.338	397	6	15	2.169	0.14	-853	3	1.8	5.211	4.471	6.053	1	549.1836735
293	acerbo	SC_3	cnc	1	s	212	82	682.6007	s	s	word	multi	24219	SC	6	3	4.879	2.353	1.147	206	3.176	4.879	gusto	11.761	1.338	397	6	15	2.169	0.14	-853	3	1.8	5.211	4.471	6.053	1	549.1836735
294	acerbo	SC_5	cnc	1	d	158	82	537.9175	d	d	word	multi	24219	SC	6	3	4.879	2.353	1.147	206	3.176	4.879	gusto	11.761	1.338	397	6	15	2.169	0.14	-853	3	1.8	5.211	4.471	6.053	1	549.1836735
295	acerbo	SC_4	cnc	1	d	77	82	588.5897	d	d	word	multi	24219	SC	6	3	4.879	2.353	1.147	206	3.176	4.879	gusto	11.761	1.338	397	6	15	2.169	0.14	-853	3	1.8	5.211	4.471	6.053	1	549.1836735
296	acerbo	SC_12	cnc	1	d	194	82	781	d	d	word	multi	24219	SC	6	3	4.879	2.353	1.147	206	3.176	4.879	gusto	11.761	1.338	397	6	15	2.169	0.14	-853	3	1.8	5.211	4.471	6.053	1	549.1836735
297	acerbo	EB_16	cnc	2	d	182	82	761.5299	d	d	word	multi	24219	EB	6	3	4.879	2.353	1.147	206	3.176	4.879	gusto	11.761	1.338	397	6	15	2.169	0.14	-853	3	1.8	5.211	4.471	6.053	1	549.1836735
298	acerbo	EB_1	cnc	1	d	161	82	971.4755	d	d	word	multi	24219	EB	6	3	4.879	2.353	1.147	206	3.176	4.879	gusto	11.761	1.338	397	6	15	2.169	0.14	-853	3	1.8	5.211	4.471	6.053	1	549.1836735
299	acerbo	SC_12	cnc	2	d	169	82	713.6931	d	d	word	multi	24219	SC	6	3	4.879	2.353	1.147	206	3.176	4.879	gusto	11.761	1.338	397	6	15	2.169	0.14	-853	3	1.8	5.211	4.471	6.053	1	549.1836735
300	acerbo	EB_14	cnc	2	d	146	82	1074.308	d	d	word	multi	24219	EB	6	3	4.879	2.353	1.147	206	3.176	4.879	gusto	11.761	1.338	397	6	15	2.169	0.14	-853	3	1.8	5.211	4.471	6.053	1	549.1836735
301	acerbo	SC_22	cnc	1	d	191	82	881.1643	d	d	word	multi	24219	SC	6	3	4.879	2.353	1.147	206	3.176	4.879	gusto	11.761	1.338	397	6	15	2.169	0.14	-853	3	1.8	5.211	4.471	6.053	1	549.1836735
302	acerbo	EB_3	cnc	1	d	257	82	919.7425	d	d	word	multi	24219	EB	6	3	4.879	2.353	1.147	206	3.176	4.879	gusto	11.761	1.338	397	6	15	2.169	0.14	-853	3	1.8	5.211	4.471	6.053	1	549.1836735
303	acerbo	SC_17	cnc	1	d	177	82	737.497	d	d	word	multi	24219	SC	6	3	4.879	2.353	1.147	206	3.176	4.879	gusto	11.761	1.338	397	6	15	2.169	0.14	-853	3	1.8	5.211	4.471	6.053	1	549.1836735
304	acerbo	EB_19	cnc	1	d	121	82	685	d	d	word	multi	24219	EB	6	3	4.879	2.353	1.147	206	3.176	4.879	gusto	11.761	1.338	397	6	15	2.169	0.14	-853	3	1.8	5.211	4.471	6.053	1	549.1836735
305	acerbo	EB_10	cnc	1	s	75	82	854.6757	s	s	word	multi	24219	EB	6	3	4.879	2.353	1.147	206	3.176	4.879	gusto	11.761	1.338	397	6	15	2.169	0.14	-853	3	1.8	5.211	4.471	6.053	1	549.1836735
306	acerbo	EB_12	cnc	2	d	72	82	717.8422	d	d	word	multi	24219	EB	6	3	4.879	2.353	1.147	206	3.176	4.879	gusto	11.761	1.338	397	6	15	2.169	0.14	-853	3	1.8	5.211	4.471	6.053	1	549.1836735
307	acerbo	SC_3	cnc	2	s	209	82	940.4914	s	s	word	multi	24219	SC	6	3	4.879	2.353	1.147	206	3.176	4.879	gusto	11.761	1.338	397	6	15	2.169	0.14	-853	3	1.8	5.211	4.471	6.053	1	549.1836735
308	acerbo	EB_13	cnc	1	d	140	82	743.2442	d	d	word	multi	24219	EB	6	3	4.879	2.353	1.147	206	3.176	4.879	gusto	11.761	1.338	397	6	15	2.169	0.14	-853	3	1.8	5.211	4.471	6.053	1	549.1836735
309	acerbo	SC_18	cnc	1	d	55	82	855.9574	d	d	word	multi	24219	SC	6	3	4.879	2.353	1.147	206	3.176	4.879	gusto	11.761	1.338	397	6	15	2.169	0.14	-853	3	1.8	5.211	4.471	6.053	1	549.1836735
310	acerbo	SC_16	cnc	2	d	20	82	749.8321	d	d	word	multi	24219	SC	6	3	4.879	2.353	1.147	206	3.176	4.879	gusto	11.761	1.338	397	6	15	2.169	0.14	-853	3	1.8	5.211	4.471	6.053	1	549.1836735
311	acerbo	EB_21	cnc	2	d	214	82	834.6657	d	d	word	multi	24219	EB	6	3	4.879	2.353	1.147	206	3.176	4.879	gusto	11.761	1.338	397	6	15	2.169	0.14	-853	3	1.8	5.211	4.471	6.053	1	549.1836735
312	acerbo	EB_9	cnc	2	d	4	82	647.4039	d	d	word	multi	24219	EB	6	3	4.879	2.353	1.147	206	3.176	4.879	gusto	11.761	1.338	397	6	15	2.169	0.14	-853	3	1.8	5.211	4.471	6.053	1	549.1836735
313	acerbo	EB_2	cnc	1	d	192	82	759.7004	d	d	word	multi	24219	EB	6	3	4.879	2.353	1.147	206	3.176	4.879	gusto	11.761	1.338	397	6	15	2.169	0.14	-853	3	1.8	5.211	4.471	6.053	1	549.1836735
314	acerbo	SC_19	cnc	2	d	127	82	713.5684	d	d	word	multi	24219	SC	6	3	4.879	2.353	1.147	206	3.176	4.879	gusto	11.761	1.338	397	6	15	2.169	0.14	-853	3	1.8	5.211	4.471	6.053	1	549.1836735
315	acerbo	SC_20	cnc	1	d	142	82	814.9331	d	d	word	multi	24219	SC	6	3	4.879	2.353	1.147	206	3.176	4.879	gusto	11.761	1.338	397	6	15	2.169	0.14	-853	3	1.8	5.211	4.471	6.053	1	549.1836735
316	acerbo	SC_21	cnc	2	s	163	82	854.557	s	s	word	multi	24219	SC	6	3	4.879	2.353	1.147	206	3.176	4.879	gusto	11.761	1.338	397	6	15	2.169	0.14	-853	3	1.8	5.211	4.471	6.053	1	549.1836735
317	acerbo	EB_8	cnc	2	d	218	82	772.2542	d	d	word	multi	24219	EB	6	3	4.879	2.353	1.147	206	3.176	4.879	gusto	11.761	1.338	397	6	15	2.169	0.14	-853	3	1.8	5.211	4.471	6.053	1	549.1836735
318	acerbo	SC_16	cnc	1	d	145	82	818.8291	d	d	word	multi	24219	SC	6	3	4.879	2.353	1.147	206	3.176	4.879	gusto	11.761	1.338	397	6	15	2.169	0.14	-853	3	1.8	5.211	4.471	6.053	1	549.1836735
319	acerbo	SC_2	cnc	1	d	182	82	744.3131	d	d	word	multi	24219	SC	6	3	4.879	2.353	1.147	206	3.176	4.879	gusto	11.761	1.338	397	6	15	2.169	0.14	-853	3	1.8	5.211	4.471	6.053	1	549.1836735
320	acerbo	SC_7	cnc	1	d	236	82	835	d	d	word	multi	24219	SC	6	3	4.879	2.353	1.147	206	3.176	4.879	gusto	11.761	1.338	397	6	15	2.169	0.14	-853	3	1.8	5.211	4.471	6.053	1	549.1836735
321	acerbo	SC_18	cnc	2	d	11	82	644.1308	d	d	word	multi	24219	SC	6	3	4.879	2.353	1.147	206	3.176	4.879	gusto	11.761	1.338	397	6	15	2.169	0.14	-853	3	1.8	5.211	4.471	6.053	1	549.1836735
322	acerbo	SC_1	cnc	2	d	65	82	648	d	d	word	multi	24219	SC	6	3	4.879	2.353	1.147	206	3.176	4.879	gusto	11.761	1.338	397	6	15	2.169	0.14	-853	3	1.8	5.211	4.471	6.053	1	549.1836735
323	acerbo	EB_15	cnc	1	d	55	82	952.9346	d	d	word	multi	24219	EB	6	3	4.879	2.353	1.147	206	3.176	4.879	gusto	11.761	1.338	397	6	15	2.169	0.14	-853	3	1.8	5.211	4.471	6.053	1	549.1836735
324	acerbo	EB_4	cnc	1	d	251	82	787.0556	d	d	word	multi	24219	EB	6	3	4.879	2.353	1.147	206	3.176	4.879	gusto	11.761	1.338	397	6	15	2.169	0.14	-853	3	1.8	5.211	4.471	6.053	1	549.1836735
325	acerbo	EB_14	cnc	1	d	63	82	1002.006	d	d	word	multi	24219	EB	6	3	4.879	2.353	1.147	206	3.176	4.879	gusto	11.761	1.338	397	6	15	2.169	0.14	-853	3	1.8	5.211	4.471	6.053	1	549.1836735
326	acerbo	EB_17	cnc	2	d	117	82	623.5096	d	d	word	multi	24219	EB	6	3	4.879	2.353	1.147	206	3.176	4.879	gusto	11.761	1.338	397	6	15	2.169	0.14	-853	3	1.8	5.211	4.471	6.053	1	549.1836735
327	acerbo	SC_10	cnc	1	d	103	82	710.0827	d	d	word	multi	24219	SC	6	3	4.879	2.353	1.147	206	3.176	4.879	gusto	11.761	1.338	397	6	15	2.169	0.14	-853	3	1.8	5.211	4.471	6.053	1	549.1836735
328	acerbo	EB_7	cnc	1	d	98	82	618.656	d	d	word	multi	24219	EB	6	3	4.879	2.353	1.147	206	3.176	4.879	gusto	11.761	1.338	397	6	15	2.169	0.14	-853	3	1.8	5.211	4.471	6.053	1	549.1836735
329	acerbo	EB_13	cnc	2	d	187	82	709.897	d	d	word	multi	24219	EB	6	3	4.879	2.353	1.147	206	3.176	4.879	gusto	11.761	1.338	397	6	15	2.169	0.14	-853	3	1.8	5.211	4.471	6.053	1	549.1836735
330	acerbo	EB_11	cnc	2	d	194	82	915.5153	d	d	word	multi	24219	EB	6	3	4.879	2.353	1.147	206	3.176	4.879	gusto	11.761	1.338	397	6	15	2.169	0.14	-853	3	1.8	5.211	4.471	6.053	1	549.1836735
331	acerbo	SC_13	cnc	1	d	111	82	926.8445	d	d	word	multi	24219	SC	6	3	4.879	2.353	1.147	206	3.176	4.879	gusto	11.761	1.338	397	6	15	2.169	0.14	-853	3	1.8	5.211	4.471	6.053	1	549.1836735
332	acerbo	EB_3	cnc	2	d	57	82	769.3126	d	d	word	multi	24219	EB	6	3	4.879	2.353	1.147	206	3.176	4.879	gusto	11.761	1.338	397	6	15	2.169	0.14	-853	3	1.8	5.211	4.471	6.053	1	549.1836735
333	acerbo	EB_20	cnc	2	d	211	82	768.6783	d	d	word	multi	24219	EB	6	3	4.879	2.353	1.147	206	3.176	4.879	gusto	11.761	1.338	397	6	15	2.169	0.14	-853	3	1.8	5.211	4.471	6.053	1	549.1836735
334	acerbo	EB_8	cnc	1	d	254	82	680.5972	d	d	word	multi	24219	EB	6	3	4.879	2.353	1.147	206	3.176	4.879	gusto	11.761	1.338	397	6	15	2.169	0.14	-853	3	1.8	5.211	4.471	6.053	1	549.1836735
335	acerbo	SC_6	cnc	2	d	128	82	636.493	d	d	word	multi	24219	SC	6	3	4.879	2.353	1.147	206	3.176	4.879	gusto	11.761	1.338	397	6	15	2.169	0.14	-853	3	1.8	5.211	4.471	6.053	1	549.1836735
336	acerbo	SC_15	cnc	1	d	34	82	717.0981	d	d	word	multi	24219	SC	6	3	4.879	2.353	1.147	206	3.176	4.879	gusto	11.761	1.338	397	6	15	2.169	0.14	-853	3	1.8	5.211	4.471	6.053	1	549.1836735
337	acibiso	EB_13	cnc	1	d	192	122	1373.29	s	s	nword	pseudow	26623	EB	0	0	0	0	0	0	0	0	xxx	0	0	0	0	0	0	0	0	0	0	0	0	0	1	603.6961451
338	acibiso	SC_14	cnc	1	d	224	122	849.4807	s	s	nword	pseudow	26623	SC	0	0	0	0	0	0	0	0	xxx	0	0	0	0	0	0	0	0	0	0	0	0	0	1	603.6961451
339	acibiso	SC_10	cnc	1	d	46	122	1267.171	s	s	nword	pseudow	26623	SC	0	0	0	0	0	0	0	0	xxx	0	0	0	0	0	0	0	0	0	0	0	0	0	1	603.6961451
340	acibiso	SC_18	cnc	1	d	68	122	985.5013	s	s	nword	pseudow	26623	SC	0	0	0	0	0	0	0	0	xxx	0	0	0	0	0	0	0	0	0	0	0	0	0	1	603.6961451
341	acibiso	EB_17	cnc	2	d	30	122	993.9185	s	s	nword	pseudow	26623	EB	0	0	0	0	0	0	0	0	xxx	0	0	0	0	0	0	0	0	0	0	0	0	0	1	603.6961451
342	acibiso	SC_3	cnc	1	s	253	122	890.6063	d	d	nword	pseudow	26623	SC	0	0	0	0	0	0	0	0	xxx	0	0	0	0	0	0	0	0	0	0	0	0	0	1	603.6961451
343	acibiso	EB_4	cnc	1	d	157	122	997.4121	s	s	nword	pseudow	26623	EB	0	0	0	0	0	0	0	0	xxx	0	0	0	0	0	0	0	0	0	0	0	0	0	1	603.6961451
344	acibiso	EB_21	cnc	1	d	150	122	876.5094	s	s	nword	pseudow	26623	EB	0	0	0	0	0	0	0	0	xxx	0	0	0	0	0	0	0	0	0	0	0	0	0	1	603.6961451
345	acibiso	EB_11	cnc	2	d	83	122	978.6553	s	s	nword	pseudow	26623	EB	0	0	0	0	0	0	0	0	xxx	0	0	0	0	0	0	0	0	0	0	0	0	0	1	603.6961451
346	acibiso	SC_20	cnc	1	d	163	122	964.6793	s	s	nword	pseudow	26623	SC	0	0	0	0	0	0	0	0	xxx	0	0	0	0	0	0	0	0	0	0	0	0	0	1	603.6961451
347	acibiso	SC_6	cnc	2	d	190	122	905.3246	s	s	nword	pseudow	26623	SC	0	0	0	0	0	0	0	0	xxx	0	0	0	0	0	0	0	0	0	0	0	0	0	1	603.6961451
348	acibiso	SC_13	cnc	1	d	179	122	759.3005	s	s	nword	pseudow	26623	SC	0	0	0	0	0	0	0	0	xxx	0	0	0	0	0	0	0	0	0	0	0	0	0	1	603.6961451
349	acibiso	SC_21	cnc	1	s	104	122	1009.119	d	d	nword	pseudow	26623	SC	0	0	0	0	0	0	0	0	xxx	0	0	0	0	0	0	0	0	0	0	0	0	0	1	603.6961451
350	acibiso	SC_17	cnc	1	d	148	122	1117.604	s	s	nword	pseudow	26623	SC	0	0	0	0	0	0	0	0	xxx	0	0	0	0	0	0	0	0	0	0	0	0	0	1	603.6961451
351	acibiso	EB_16	cnc	2	d	57	122	711.3457	s	s	nword	pseudow	26623	EB	0	0	0	0	0	0	0	0	xxx	0	0	0	0	0	0	0	0	0	0	0	0	0	1	603.6961451
352	acibiso	EB_3	cnc	1	d	156	122	951.7881	s	s	nword	pseudow	26623	EB	0	0	0	0	0	0	0	0	xxx	0	0	0	0	0	0	0	0	0	0	0	0	0	1	603.6961451
353	acibiso	SC_16	cnc	1	d	56	122	1185.621	s	s	nword	pseudow	26623	SC	0	0	0	0	0	0	0	0	xxx	0	0	0	0	0	0	0	0	0	0	0	0	0	1	603.6961451
354	acibiso	EB_18	cnc	1	d	254	122	1089.83	s	s	nword	pseudow	26623	EB	0	0	0	0	0	0	0	0	xxx	0	0	0	0	0	0	0	0	0	0	0	0	0	1	603.6961451
355	acibiso	EB_10	cnc	1	s	266	122	1104.801	d	d	nword	pseudow	26623	EB	0	0	0	0	0	0	0	0	xxx	0	0	0	0	0	0	0	0	0	0	0	0	0	1	603.6961451
356	acibiso	EB_2	cnc	1	d	44	122	892.7169	s	s	nword	pseudow	26623	EB	0	0	0	0	0	0	0	0	xxx	0	0	0	0	0	0	0	0	0	0	0	0	0	1	603.6961451
357	acibiso	SC_7	cnc	2	d	238	122	959	s	s	nword	pseudow	26623	SC	0	0	0	0	0	0	0	0	xxx	0	0	0	0	0	0	0	0	0	0	0	0	0	1	603.6961451
358	acibiso	EB_14	cnc	1	d	36	122	851.9176	s	s	nword	pseudow	26623	EB	0	0	0	0	0	0	0	0	xxx	0	0	0	0	0	0	0	0	0	0	0	0	0	1	603.6961451
359	acibiso	SC_7	cnc	1	d	97	122	1850	s	s	nword	pseudow	26623	SC	0	0	0	0	0	0	0	0	xxx	0	0	0	0	0	0	0	0	0	0	0	0	0	1	603.6961451
360	acibiso	SC_9	cnc	2	d	37	122	820.089	s	s	nword	pseudow	26623	SC	0	0	0	0	0	0	0	0	xxx	0	0	0	0	0	0	0	0	0	0	0	0	0	1	603.6961451
361	acibiso	SC_1	cnc	1	d	192	122	858.4404	s	s	nword	pseudow	26623	SC	0	0	0	0	0	0	0	0	xxx	0	0	0	0	0	0	0	0	0	0	0	0	0	1	603.6961451
362	acibiso	EB_20	cnc	2	d	126	122	853.21	s	s	nword	pseudow	26623	EB	0	0	0	0	0	0	0	0	xxx	0	0	0	0	0	0	0	0	0	0	0	0	0	1	603.6961451
363	acibiso	EB_19	cnc	1	d	220	122	970	s	s	nword	pseudow	26623	EB	0	0	0	0	0	0	0	0	xxx	0	0	0	0	0	0	0	0	0	0	0	0	0	1	603.6961451
364	acibiso	EB_15	cnc	2	d	186	122	1010	s	s	nword	pseudow	26623	EB	0	0	0	0	0	0	0	0	xxx	0	0	0	0	0	0	0	0	0	0	0	0	0	1	603.6961451
365	acibiso	SC_12	cnc	2	d	74	122	991.195	s	s	nword	pseudow	26623	SC	0	0	0	0	0	0	0	0	xxx	0	0	0	0	0	0	0	0	0	0	0	0	0	1	603.6961451
366	acibiso	EB_19	cnc	2	d	128	122	817	s	s	nword	pseudow	26623	EB	0	0	0	0	0	0	0	0	xxx	0	0	0	0	0	0	0	0	0	0	0	0	0	1	603.6961451
367	acibiso	EB_17	cnc	1	d	255	122	986.6737	s	s	nword	pseudow	26623	EB	0	0	0	0	0	0	0	0	xxx	0	0	0	0	0	0	0	0	0	0	0	0	0	1	603.6961451
368	acibiso	SC_2	cnc	1	d	246	122	769.2889	s	s	nword	pseudow	26623	SC	0	0	0	0	0	0	0	0	xxx	0	0	0	0	0	0	0	0	0	0	0	0	0	1	603.6961451
369	acibiso	EB_5	cnc	1	d	167	122	861.5611	s	s	nword	pseudow	26623	EB	0	0	0	0	0	0	0	0	xxx	0	0	0	0	0	0	0	0	0	0	0	0	0	1	603.6961451
370	acibiso	SC_4	cnc	2	d	185	122	883.208	s	s	nword	pseudow	26623	SC	0	0	0	0	0	0	0	0	xxx	0	0	0	0	0	0	0	0	0	0	0	0	0	1	603.6961451
371	acibiso	EB_5	cnc	2	d	30	122	854.0284	s	s	nword	pseudow	26623	EB	0	0	0	0	0	0	0	0	xxx	0	0	0	0	0	0	0	0	0	0	0	0	0	1	603.6961451
372	acibiso	SC_19	cnc	2	d	118	122	895.2954	s	s	nword	pseudow	26623	SC	0	0	0	0	0	0	0	0	xxx	0	0	0	0	0	0	0	0	0	0	0	0	0	1	603.6961451
373	acibiso	EB_8	cnc	1	d	62	122	982.9076	s	s	nword	pseudow	26623	EB	0	0	0	0	0	0	0	0	xxx	0	0	0	0	0	0	0	0	0	0	0	0	0	1	603.6961451
374	acibiso	EB_9	cnc	2	d	121	122	814.0996	s	s	nword	pseudow	26623	EB	0	0	0	0	0	0	0	0	xxx	0	0	0	0	0	0	0	0	0	0	0	0	0	1	603.6961451
375	acibiso	SC_15	cnc	2	d	165	122	864.9902	s	s	nword	pseudow	26623	SC	0	0	0	0	0	0	0	0	xxx	0	0	0	0	0	0	0	0	0	0	0	0	0	1	603.6961451
376	acibiso	SC_20	cnc	2	d	215	122	940.8564	s	s	nword	pseudow	26623	SC	0	0	0	0	0	0	0	0	xxx	0	0	0	0	0	0	0	0	0	0	0	0	0	1	603.6961451
377	acibiso	EB_3	cnc	2	d	13	122	936.5021	s	s	nword	pseudow	26623	EB	0	0	0	0	0	0	0	0	xxx	0	0	0	0	0	0	0	0	0	0	0	0	0	1	603.6961451
378	acibiso	SC_14	cnc	2	d	137	122	993.9212	s	s	nword	pseudow	26623	SC	0	0	0	0	0	0	0	0	xxx	0	0	0	0	0	0	0	0	0	0	0	0	0	1	603.6961451
379	acibiso	EB_7	cnc	1	d	177	122	1850.547	s	s	nword	pseudow	26623	EB	0	0	0	0	0	0	0	0	xxx	0	0	0	0	0	0	0	0	0	0	0	0	0	1	603.6961451
380	acibiso	SC_5	cnc	1	d	203	122	839.8243	s	s	nword	pseudow	26623	SC	0	0	0	0	0	0	0	0	xxx	0	0	0	0	0	0	0	0	0	0	0	0	0	1	603.6961451
381	acibiso	EB_15	cnc	1	d	228	122	1139.458	s	s	nword	pseudow	26623	EB	0	0	0	0	0	0	0	0	xxx	0	0	0	0	0	0	0	0	0	0	0	0	0	1	603.6961451
382	acibiso	SC_19	cnc	1	d	230	122	956.0004	s	s	nword	pseudow	26623	SC	0	0	0	0	0	0	0	0	xxx	0	0	0	0	0	0	0	0	0	0	0	0	0	1	603.6961451
383	acibiso	EB_6	cnc	1	d	55	122	1049.708	s	s	nword	pseudow	26623	EB	0	0	0	0	0	0	0	0	xxx	0	0	0	0	0	0	0	0	0	0	0	0	0	1	603.6961451
384	acibiso	EB_13	cnc	2	d	1	122	975.5656	s	s	nword	pseudow	26623	EB	0	0	0	0	0	0	0	0	xxx	0	0	0	0	0	0	0	0	0	0	0	0	0	1	603.6961451
385	acibiso	EB_18	cnc	2	d	13	122	1070	s	s	nword	pseudow	26623	EB	0	0	0	0	0	0	0	0	xxx	0	0	0	0	0	0	0	0	0	0	0	0	0	1	603.6961451
386	acibiso	SC_17	cnc	2	d	20	122	1059.832	s	s	nword	pseudow	26623	SC	0	0	0	0	0	0	0	0	xxx	0	0	0	0	0	0	0	0	0	0	0	0	0	1	603.6961451
387	acibiso	SC_21	cnc	2	s	122	122	1337.266	d	d	nword	pseudow	26623	SC	0	0	0	0	0	0	0	0	xxx	0	0	0	0	0	0	0	0	0	0	0	0	0	1	603.6961451
388	acibiso	SC_8	cnc	1	d	167	122	1100	s	s	nword	pseudow	26623	SC	0	0	0	0	0	0	0	0	xxx	0	0	0	0	0	0	0	0	0	0	0	0	0	1	603.6961451
389	acibiso	EB_7	cnc	2	d	237	122	829.8152	d	s	nword	pseudow	26623	EB	0	0	0	0	0	0	0	0	xxx	0	0	0	0	0	0	0	0	0	0	0	0	0	0	603.6961451
390	acibiso	SC_22	cnc	2	d	233	122	906.4826	s	s	nword	pseudow	26623	SC	0	0	0	0	0	0	0	0	xxx	0	0	0	0	0	0	0	0	0	0	0	0	0	1	603.6961451
391	acibiso	SC_10	cnc	2	d	185	122	1030.494	s	s	nword	pseudow	26623	SC	0	0	0	0	0	0	0	0	xxx	0	0	0	0	0	0	0	0	0	0	0	0	0	1	603.6961451
392	acibiso	SC_15	cnc	1	d	157	122	831.4789	s	s	nword	pseudow	26623	SC	0	0	0	0	0	0	0	0	xxx	0	0	0	0	0	0	0	0	0	0	0	0	0	1	603.6961451
393	acibiso	SC_2	cnc	2	d	137	122	839.0347	s	s	nword	pseudow	26623	SC	0	0	0	0	0	0	0	0	xxx	0	0	0	0	0	0	0	0	0	0	0	0	0	1	603.6961451
394	acibiso	EB_2	cnc	2	d	130	122	865.7644	s	s	nword	pseudow	26623	EB	0	0	0	0	0	0	0	0	xxx	0	0	0	0	0	0	0	0	0	0	0	0	0	1	603.6961451
395	acibiso	SC_3	cnc	2	s	96	122	812.2777	d	d	nword	pseudow	26623	SC	0	0	0	0	0	0	0	0	xxx	0	0	0	0	0	0	0	0	0	0	0	0	0	1	603.6961451
396	acibiso	EB_16	cnc	1	d	122	122	847.4045	s	s	nword	pseudow	26623	EB	0	0	0	0	0	0	0	0	xxx	0	0	0	0	0	0	0	0	0	0	0	0	0	1	603.6961451
397	acibiso	SC_6	cnc	1	d	118	122	714.9027	s	s	nword	pseudow	26623	SC	0	0	0	0	0	0	0	0	xxx	0	0	0	0	0	0	0	0	0	0	0	0	0	1	603.6961451
398	acibiso	EB_8	cnc	2	d	152	122	881.8491	s	s	nword	pseudow	26623	EB	0	0	0	0	0	0	0	0	xxx	0	0	0	0	0	0	0	0	0	0	0	0	0	1	603.6961451
399	acibiso	EB_1	cnc	1	d	84	122	1163.677	s	s	nword	pseudow	26623	EB	0	0	0	0	0	0	0	0	xxx	0	0	0	0	0	0	0	0	0	0	0	0	0	1	603.6961451
400	acibiso	EB_11	cnc	1	d	137	122	1000.624	s	s	nword	pseudow	26623	EB	0	0	0	0	0	0	0	0	xxx	0	0	0	0	0	0	0	0	0	0	0	0	0	1	603.6961451
401	acibiso	EB_12	cnc	2	d	156	122	738.4329	s	s	nword	pseudow	26623	EB	0	0	0	0	0	0	0	0	xxx	0	0	0	0	0	0	0	0	0	0	0	0	0	1	603.6961451
402	acibiso	EB_12	cnc	1	d	32	122	1193.409	s	s	nword	pseudow	26623	EB	0	0	0	0	0	0	0	0	xxx	0	0	0	0	0	0	0	0	0	0	0	0	0	1	603.6961451
403	acibiso	EB_21	cnc	2	d	137	122	990.026	s	s	nword	pseudow	26623	EB	0	0	0	0	0	0	0	0	xxx	0	0	0	0	0	0	0	0	0	0	0	0	0	1	603.6961451
404	acibiso	EB_6	cnc	2	d	78	122	1129.533	s	s	nword	pseudow	26623	EB	0	0	0	0	0	0	0	0	xxx	0	0	0	0	0	0	0	0	0	0	0	0	0	1	603.6961451
405	acibiso	SC_12	cnc	1	d	113	122	853	s	s	nword	pseudow	26623	SC	0	0	0	0	0	0	0	0	xxx	0	0	0	0	0	0	0	0	0	0	0	0	0	1	603.6961451
406	acibiso	EB_9	cnc	1	d	260	122	810.1795	s	s	nword	pseudow	26623	EB	0	0	0	0	0	0	0	0	xxx	0	0	0	0	0	0	0	0	0	0	0	0	0	1	603.6961451
407	acibiso	SC_1	cnc	2	d	193	122	780	s	s	nword	pseudow	26623	SC	0	0	0	0	0	0	0	0	xxx	0	0	0	0	0	0	0	0	0	0	0	0	0	1	603.6961451
408	acibiso	SC_9	cnc	1	d	83	122	950.7779	s	s	nword	pseudow	26623	SC	0	0	0	0	0	0	0	0	xxx	0	0	0	0	0	0	0	0	0	0	0	0	0	1	603.6961451
409	acibiso	EB_10	cnc	2	s	135	122	966.8253	d	d	nword	pseudow	26623	EB	0	0	0	0	0	0	0	0	xxx	0	0	0	0	0	0	0	0	0	0	0	0	0	1	603.6961451
410	acibiso	SC_4	cnc	1	d	268	122	880.6614	s	s	nword	pseudow	26623	SC	0	0	0	0	0	0	0	0	xxx	0	0	0	0	0	0	0	0	0	0	0	0	0	1	603.6961451
411	acibiso	SC_13	cnc	2	d	177	122	737.0882	s	s	nword	pseudow	26623	SC	0	0	0	0	0	0	0	0	xxx	0	0	0	0	0	0	0	0	0	0	0	0	0	1	603.6961451
412	acibiso	SC_8	cnc	2	d	154	122	1360	s	s	nword	pseudow	26623	SC	0	0	0	0	0	0	0	0	xxx	0	0	0	0	0	0	0	0	0	0	0	0	0	1	603.6961451
413	acibiso	EB_4	cnc	2	d	30	122	838.4335	s	s	nword	pseudow	26623	EB	0	0	0	0	0	0	0	0	xxx	0	0	0	0	0	0	0	0	0	0	0	0	0	1	603.6961451
414	acibiso	SC_16	cnc	2	d	56	122	1084.551	s	s	nword	pseudow	26623	SC	0	0	0	0	0	0	0	0	xxx	0	0	0	0	0	0	0	0	0	0	0	0	0	1	603.6961451
415	acibiso	SC_18	cnc	2	d	141	122	801.0002	s	s	nword	pseudow	26623	SC	0	0	0	0	0	0	0	0	xxx	0	0	0	0	0	0	0	0	0	0	0	0	0	1	603.6961451
416	acibiso	SC_22	cnc	1	d	141	122	1024.587	s	s	nword	pseudow	26623	SC	0	0	0	0	0	0	0	0	xxx	0	0	0	0	0	0	0	0	0	0	0	0	0	1	603.6961451
417	acibiso	EB_20	cnc	1	d	90	122	1554.693	s	s	nword	pseudow	26623	EB	0	0	0	0	0	0	0	0	xxx	0	0	0	0	0	0	0	0	0	0	0	0	0	1	603.6961451
418	acibiso	EB_1	cnc	2	d	27	122	1031.26	s	s	nword	pseudow	26623	EB	0	0	0	0	0	0	0	0	xxx	0	0	0	0	0	0	0	0	0	0	0	0	0	1	603.6961451
419	acibiso	EB_14	cnc	2	d	190	122	902.5644	s	s	nword	pseudow	26623	EB	0	0	0	0	0	0	0	0	xxx	0	0	0	0	0	0	0	0	0	0	0	0	0	1	603.6961451
420	acibiso	SC_5	cnc	2	d	42	122	971.9589	s	s	nword	pseudow	26623	SC	0	0	0	0	0	0	0	0	xxx	0	0	0	0	0	0	0	0	0	0	0	0	0	1	603.6961451
421	acido	EB_18	cnc	2	d	62	81	995	d	d	word	multi	22151	EB	5	3	5	3.471	618	294	1.676	5	gusto	11.059	1.266	426	5	740	3.953	9	954	13	1	6.412	3.389	6.611	1	502.2902494
422	acido	EB_13	cnc	1	d	37	81	755.923	d	d	word	multi	22151	EB	5	3	5	3.471	618	294	1.676	5	gusto	11.059	1.266	426	5	740	3.953	9	954	13	1	6.412	3.389	6.611	1	502.2902494
423	acido	EB_2	cnc	2	d	148	81	645.2844	d	d	word	multi	22151	EB	5	3	5	3.471	618	294	1.676	5	gusto	11.059	1.266	426	5	740	3.953	9	954	13	1	6.412	3.389	6.611	1	502.2902494
424	acido	EB_17	cnc	2	d	13	81	677.2669	d	d	word	multi	22151	EB	5	3	5	3.471	618	294	1.676	5	gusto	11.059	1.266	426	5	740	3.953	9	954	13	1	6.412	3.389	6.611	1	502.2902494
425	acido	SC_18	cnc	2	d	78	81	704.978	d	d	word	multi	22151	SC	5	3	5	3.471	618	294	1.676	5	gusto	11.059	1.266	426	5	740	3.953	9	954	13	1	6.412	3.389	6.611	1	502.2902494
426	acido	EB_19	cnc	2	d	66	81	684	d	d	word	multi	22151	EB	5	3	5	3.471	618	294	1.676	5	gusto	11.059	1.266	426	5	740	3.953	9	954	13	1	6.412	3.389	6.611	1	502.2902494
427	acido	SC_22	cnc	1	d	130	81	779.6629	d	d	word	multi	22151	SC	5	3	5	3.471	618	294	1.676	5	gusto	11.059	1.266	426	5	740	3.953	9	954	13	1	6.412	3.389	6.611	1	502.2902494
428	acido	SC_9	cnc	2	d	233	81	613.1585	d	d	word	multi	22151	SC	5	3	5	3.471	618	294	1.676	5	gusto	11.059	1.266	426	5	740	3.953	9	954	13	1	6.412	3.389	6.611	1	502.2902494
429	acido	EB_4	cnc	1	d	176	81	737.5891	d	d	word	multi	22151	EB	5	3	5	3.471	618	294	1.676	5	gusto	11.059	1.266	426	5	740	3.953	9	954	13	1	6.412	3.389	6.611	1	502.2902494
430	acido	SC_5	cnc	2	d	111	81	631.1469	d	d	word	multi	22151	SC	5	3	5	3.471	618	294	1.676	5	gusto	11.059	1.266	426	5	740	3.953	9	954	13	1	6.412	3.389	6.611	1	502.2902494
431	acido	EB_16	cnc	1	d	48	81	676.058	d	d	word	multi	22151	EB	5	3	5	3.471	618	294	1.676	5	gusto	11.059	1.266	426	5	740	3.953	9	954	13	1	6.412	3.389	6.611	1	502.2902494
432	acido	EB_5	cnc	1	d	182	81	693.7162	d	d	word	multi	22151	EB	5	3	5	3.471	618	294	1.676	5	gusto	11.059	1.266	426	5	740	3.953	9	954	13	1	6.412	3.389	6.611	1	502.2902494
433	acido	EB_10	cnc	2	s	195	81	798.5654	s	s	word	multi	22151	EB	5	3	5	3.471	618	294	1.676	5	gusto	11.059	1.266	426	5	740	3.953	9	954	13	1	6.412	3.389	6.611	1	502.2902494
434	acido	SC_16	cnc	1	d	93	81	663.8993	d	d	word	multi	22151	SC	5	3	5	3.471	618	294	1.676	5	gusto	11.059	1.266	426	5	740	3.953	9	954	13	1	6.412	3.389	6.611	1	502.2902494
435	acido	SC_22	cnc	2	d	183	81	715.2487	d	d	word	multi	22151	SC	5	3	5	3.471	618	294	1.676	5	gusto	11.059	1.266	426	5	740	3.953	9	954	13	1	6.412	3.389	6.611	1	502.2902494
436	acido	EB_9	cnc	2	d	103	81	583.9421	d	d	word	multi	22151	EB	5	3	5	3.471	618	294	1.676	5	gusto	11.059	1.266	426	5	740	3.953	9	954	13	1	6.412	3.389	6.611	1	502.2902494
437	acido	EB_4	cnc	2	d	102	81	762.165	d	d	word	multi	22151	EB	5	3	5	3.471	618	294	1.676	5	gusto	11.059	1.266	426	5	740	3.953	9	954	13	1	6.412	3.389	6.611	1	502.2902494
438	acido	SC_9	cnc	1	d	57	81	1198.23	d	d	word	multi	22151	SC	5	3	5	3.471	618	294	1.676	5	gusto	11.059	1.266	426	5	740	3.953	9	954	13	1	6.412	3.389	6.611	1	502.2902494
439	acido	SC_6	cnc	1	d	255	81	710.8829	d	d	word	multi	22151	SC	5	3	5	3.471	618	294	1.676	5	gusto	11.059	1.266	426	5	740	3.953	9	954	13	1	6.412	3.389	6.611	1	502.2902494
440	acido	SC_14	cnc	1	d	85	81	733.8541	d	d	word	multi	22151	SC	5	3	5	3.471	618	294	1.676	5	gusto	11.059	1.266	426	5	740	3.953	9	954	13	1	6.412	3.389	6.611	1	502.2902494
441	acido	EB_13	cnc	2	d	81	81	912.7259	d	d	word	multi	22151	EB	5	3	5	3.471	618	294	1.676	5	gusto	11.059	1.266	426	5	740	3.953	9	954	13	1	6.412	3.389	6.611	1	502.2902494
442	acido	EB_20	cnc	1	d	215	81	705.6347	d	d	word	multi	22151	EB	5	3	5	3.471	618	294	1.676	5	gusto	11.059	1.266	426	5	740	3.953	9	954	13	1	6.412	3.389	6.611	1	502.2902494
443	acido	SC_4	cnc	2	d	68	81	613.2863	d	d	word	multi	22151	SC	5	3	5	3.471	618	294	1.676	5	gusto	11.059	1.266	426	5	740	3.953	9	954	13	1	6.412	3.389	6.611	1	502.2902494
444	acido	EB_3	cnc	1	d	45	81	957.9447	d	d	word	multi	22151	EB	5	3	5	3.471	618	294	1.676	5	gusto	11.059	1.266	426	5	740	3.953	9	954	13	1	6.412	3.389	6.611	1	502.2902494
445	acido	EB_1	cnc	1	d	233	81	963.4048	d	d	word	multi	22151	EB	5	3	5	3.471	618	294	1.676	5	gusto	11.059	1.266	426	5	740	3.953	9	954	13	1	6.412	3.389	6.611	1	502.2902494
446	acido	EB_6	cnc	1	d	35	81	1053.768	d	d	word	multi	22151	EB	5	3	5	3.471	618	294	1.676	5	gusto	11.059	1.266	426	5	740	3.953	9	954	13	1	6.412	3.389	6.611	1	502.2902494
447	acido	EB_17	cnc	1	d	259	81	811.4416	d	d	word	multi	22151	EB	5	3	5	3.471	618	294	1.676	5	gusto	11.059	1.266	426	5	740	3.953	9	954	13	1	6.412	3.389	6.611	1	502.2902494
448	acido	EB_8	cnc	2	d	56	81	713.8766	d	d	word	multi	22151	EB	5	3	5	3.471	618	294	1.676	5	gusto	11.059	1.266	426	5	740	3.953	9	954	13	1	6.412	3.389	6.611	1	502.2902494
449	acido	EB_12	cnc	1	d	59	81	914.5263	d	d	word	multi	22151	EB	5	3	5	3.471	618	294	1.676	5	gusto	11.059	1.266	426	5	740	3.953	9	954	13	1	6.412	3.389	6.611	1	502.2902494
450	acido	EB_2	cnc	1	d	219	81	708.5674	d	d	word	multi	22151	EB	5	3	5	3.471	618	294	1.676	5	gusto	11.059	1.266	426	5	740	3.953	9	954	13	1	6.412	3.389	6.611	1	502.2902494
451	acido	SC_21	cnc	1	s	163	81	781.5663	s	s	word	multi	22151	SC	5	3	5	3.471	618	294	1.676	5	gusto	11.059	1.266	426	5	740	3.953	9	954	13	1	6.412	3.389	6.611	1	502.2902494
452	acido	SC_10	cnc	1	d	123	81	830.9222	s	d	word	multi	22151	SC	5	3	5	3.471	618	294	1.676	5	gusto	11.059	1.266	426	5	740	3.953	9	954	13	1	6.412	3.389	6.611	0	502.2902494
453	acido	SC_2	cnc	1	d	170	81	802.8014	d	d	word	multi	22151	SC	5	3	5	3.471	618	294	1.676	5	gusto	11.059	1.266	426	5	740	3.953	9	954	13	1	6.412	3.389	6.611	1	502.2902494
454	acido	EB_21	cnc	2	d	146	81	1009.111	d	d	word	multi	22151	EB	5	3	5	3.471	618	294	1.676	5	gusto	11.059	1.266	426	5	740	3.953	9	954	13	1	6.412	3.389	6.611	1	502.2902494
455	acido	SC_7	cnc	1	d	51	81	755	d	d	word	multi	22151	SC	5	3	5	3.471	618	294	1.676	5	gusto	11.059	1.266	426	5	740	3.953	9	954	13	1	6.412	3.389	6.611	1	502.2902494
456	acido	EB_15	cnc	2	d	140	81	815	d	d	word	multi	22151	EB	5	3	5	3.471	618	294	1.676	5	gusto	11.059	1.266	426	5	740	3.953	9	954	13	1	6.412	3.389	6.611	1	502.2902494
457	acido	EB_16	cnc	2	d	116	81	601.3168	d	d	word	multi	22151	EB	5	3	5	3.471	618	294	1.676	5	gusto	11.059	1.266	426	5	740	3.953	9	954	13	1	6.412	3.389	6.611	1	502.2902494
458	acido	EB_3	cnc	2	d	121	81	679.6607	d	d	word	multi	22151	EB	5	3	5	3.471	618	294	1.676	5	gusto	11.059	1.266	426	5	740	3.953	9	954	13	1	6.412	3.389	6.611	1	502.2902494
459	acido	SC_19	cnc	1	d	88	81	614.3577	d	d	word	multi	22151	SC	5	3	5	3.471	618	294	1.676	5	gusto	11.059	1.266	426	5	740	3.953	9	954	13	1	6.412	3.389	6.611	1	502.2902494
460	acido	SC_1	cnc	1	d	117	81	583.9284	d	d	word	multi	22151	SC	5	3	5	3.471	618	294	1.676	5	gusto	11.059	1.266	426	5	740	3.953	9	954	13	1	6.412	3.389	6.611	1	502.2902494
461	acido	SC_4	cnc	1	d	50	81	612.1793	d	d	word	multi	22151	SC	5	3	5	3.471	618	294	1.676	5	gusto	11.059	1.266	426	5	740	3.953	9	954	13	1	6.412	3.389	6.611	1	502.2902494
462	acido	SC_20	cnc	2	d	112	81	1025.749	d	d	word	multi	22151	SC	5	3	5	3.471	618	294	1.676	5	gusto	11.059	1.266	426	5	740	3.953	9	954	13	1	6.412	3.389	6.611	1	502.2902494
463	acido	SC_20	cnc	1	d	263	81	989.7597	d	d	word	multi	22151	SC	5	3	5	3.471	618	294	1.676	5	gusto	11.059	1.266	426	5	740	3.953	9	954	13	1	6.412	3.389	6.611	1	502.2902494
464	acido	SC_12	cnc	2	d	83	81	742.3545	d	d	word	multi	22151	SC	5	3	5	3.471	618	294	1.676	5	gusto	11.059	1.266	426	5	740	3.953	9	954	13	1	6.412	3.389	6.611	1	502.2902494
465	acido	EB_6	cnc	2	d	4	81	866.67	d	d	word	multi	22151	EB	5	3	5	3.471	618	294	1.676	5	gusto	11.059	1.266	426	5	740	3.953	9	954	13	1	6.412	3.389	6.611	1	502.2902494
466	acido	SC_2	cnc	2	d	115	81	682.1101	d	d	word	multi	22151	SC	5	3	5	3.471	618	294	1.676	5	gusto	11.059	1.266	426	5	740	3.953	9	954	13	1	6.412	3.389	6.611	1	502.2902494
467	acido	SC_14	cnc	2	d	227	81	680.7256	d	d	word	multi	22151	SC	5	3	5	3.471	618	294	1.676	5	gusto	11.059	1.266	426	5	740	3.953	9	954	13	1	6.412	3.389	6.611	1	502.2902494
468	acido	EB_11	cnc	2	d	167	81	717.0531	d	d	word	multi	22151	EB	5	3	5	3.471	618	294	1.676	5	gusto	11.059	1.266	426	5	740	3.953	9	954	13	1	6.412	3.389	6.611	1	502.2902494
469	acido	SC_18	cnc	1	d	189	81	709.3345	d	d	word	multi	22151	SC	5	3	5	3.471	618	294	1.676	5	gusto	11.059	1.266	426	5	740	3.953	9	954	13	1	6.412	3.389	6.611	1	502.2902494
470	acido	SC_8	cnc	2	d	51	81	1280	d	d	word	multi	22151	SC	5	3	5	3.471	618	294	1.676	5	gusto	11.059	1.266	426	5	740	3.953	9	954	13	1	6.412	3.389	6.611	1	502.2902494
471	acido	EB_1	cnc	2	d	172	81	840.6009	d	d	word	multi	22151	EB	5	3	5	3.471	618	294	1.676	5	gusto	11.059	1.266	426	5	740	3.953	9	954	13	1	6.412	3.389	6.611	1	502.2902494
472	acido	EB_21	cnc	1	d	141	81	812.4335	d	d	word	multi	22151	EB	5	3	5	3.471	618	294	1.676	5	gusto	11.059	1.266	426	5	740	3.953	9	954	13	1	6.412	3.389	6.611	1	502.2902494
473	acido	EB_7	cnc	1	d	242	81	1619.26	d	d	word	multi	22151	EB	5	3	5	3.471	618	294	1.676	5	gusto	11.059	1.266	426	5	740	3.953	9	954	13	1	6.412	3.389	6.611	1	502.2902494
474	acido	SC_13	cnc	1	d	129	81	713.7847	d	d	word	multi	22151	SC	5	3	5	3.471	618	294	1.676	5	gusto	11.059	1.266	426	5	740	3.953	9	954	13	1	6.412	3.389	6.611	1	502.2902494
475	acido	EB_9	cnc	1	d	147	81	636.167	d	d	word	multi	22151	EB	5	3	5	3.471	618	294	1.676	5	gusto	11.059	1.266	426	5	740	3.953	9	954	13	1	6.412	3.389	6.611	1	502.2902494
476	acido	EB_7	cnc	2	d	77	81	1518.39	d	d	word	multi	22151	EB	5	3	5	3.471	618	294	1.676	5	gusto	11.059	1.266	426	5	740	3.953	9	954	13	1	6.412	3.389	6.611	1	502.2902494
477	acido	EB_11	cnc	1	d	225	81	653.4846	d	d	word	multi	22151	EB	5	3	5	3.471	618	294	1.676	5	gusto	11.059	1.266	426	5	740	3.953	9	954	13	1	6.412	3.389	6.611	1	502.2902494
478	acido	SC_8	cnc	1	d	232	81	2110	s	d	word	multi	22151	SC	5	3	5	3.471	618	294	1.676	5	gusto	11.059	1.266	426	5	740	3.953	9	954	13	1	6.412	3.389	6.611	0	502.2902494
479	acido	SC_5	cnc	1	d	109	81	656.4726	d	d	word	multi	22151	SC	5	3	5	3.471	618	294	1.676	5	gusto	11.059	1.266	426	5	740	3.953	9	954	13	1	6.412	3.389	6.611	1	502.2902494
480	acido	EB_20	cnc	2	d	2	81	697.8158	d	d	word	multi	22151	EB	5	3	5	3.471	618	294	1.676	5	gusto	11.059	1.266	426	5	740	3.953	9	954	13	1	6.412	3.389	6.611	1	502.2902494
481	acido	SC_12	cnc	1	d	140	81	723	d	d	word	multi	22151	SC	5	3	5	3.471	618	294	1.676	5	gusto	11.059	1.266	426	5	740	3.953	9	954	13	1	6.412	3.389	6.611	1	502.2902494
482	acido	EB_10	cnc	1	s	64	81	815.0344	s	s	word	multi	22151	EB	5	3	5	3.471	618	294	1.676	5	gusto	11.059	1.266	426	5	740	3.953	9	954	13	1	6.412	3.389	6.611	1	502.2902494
483	acido	SC_3	cnc	1	s	224	81	852.5124	s	s	word	multi	22151	SC	5	3	5	3.471	618	294	1.676	5	gusto	11.059	1.266	426	5	740	3.953	9	954	13	1	6.412	3.389	6.611	1	502.2902494
484	acido	EB_14	cnc	2	d	22	81	971.1073	d	d	word	multi	22151	EB	5	3	5	3.471	618	294	1.676	5	gusto	11.059	1.266	426	5	740	3.953	9	954	13	1	6.412	3.389	6.611	1	502.2902494
485	acido	EB_12	cnc	2	d	152	81	688.0743	d	d	word	multi	22151	EB	5	3	5	3.471	618	294	1.676	5	gusto	11.059	1.266	426	5	740	3.953	9	954	13	1	6.412	3.389	6.611	1	502.2902494
486	acido	SC_17	cnc	2	d	215	81	710.6372	d	d	word	multi	22151	SC	5	3	5	3.471	618	294	1.676	5	gusto	11.059	1.266	426	5	740	3.953	9	954	13	1	6.412	3.389	6.611	1	502.2902494
487	acido	SC_6	cnc	2	d	114	81	611.8679	d	d	word	multi	22151	SC	5	3	5	3.471	618	294	1.676	5	gusto	11.059	1.266	426	5	740	3.953	9	954	13	1	6.412	3.389	6.611	1	502.2902494
488	acido	SC_7	cnc	2	d	97	81	1340	d	d	word	multi	22151	SC	5	3	5	3.471	618	294	1.676	5	gusto	11.059	1.266	426	5	740	3.953	9	954	13	1	6.412	3.389	6.611	1	502.2902494
489	acido	SC_16	cnc	2	d	99	81	648.6125	d	d	word	multi	22151	SC	5	3	5	3.471	618	294	1.676	5	gusto	11.059	1.266	426	5	740	3.953	9	954	13	1	6.412	3.389	6.611	1	502.2902494
490	acido	SC_3	cnc	2	s	122	81	914.2883	s	s	word	multi	22151	SC	5	3	5	3.471	618	294	1.676	5	gusto	11.059	1.266	426	5	740	3.953	9	954	13	1	6.412	3.389	6.611	1	502.2902494
491	acido	SC_13	cnc	2	d	209	81	651.0144	d	d	word	multi	22151	SC	5	3	5	3.471	618	294	1.676	5	gusto	11.059	1.266	426	5	740	3.953	9	954	13	1	6.412	3.389	6.611	1	502.2902494
492	acido	SC_10	cnc	2	d	89	81	717.6798	d	d	word	multi	22151	SC	5	3	5	3.471	618	294	1.676	5	gusto	11.059	1.266	426	5	740	3.953	9	954	13	1	6.412	3.389	6.611	1	502.2902494
493	acido	SC_17	cnc	1	d	237	81	847.9394	d	d	word	multi	22151	SC	5	3	5	3.471	618	294	1.676	5	gusto	11.059	1.266	426	5	740	3.953	9	954	13	1	6.412	3.389	6.611	1	502.2902494
494	acido	SC_1	cnc	2	d	32	81	547	d	d	word	multi	22151	SC	5	3	5	3.471	618	294	1.676	5	gusto	11.059	1.266	426	5	740	3.953	9	954	13	1	6.412	3.389	6.611	1	502.2902494
495	acido	EB_18	cnc	1	d	221	81	985.4303	d	d	word	multi	22151	EB	5	3	5	3.471	618	294	1.676	5	gusto	11.059	1.266	426	5	740	3.953	9	954	13	1	6.412	3.389	6.611	1	502.2902494
496	acido	EB_5	cnc	2	d	106	81	813.376	d	d	word	multi	22151	EB	5	3	5	3.471	618	294	1.676	5	gusto	11.059	1.266	426	5	740	3.953	9	954	13	1	6.412	3.389	6.611	1	502.2902494
497	acido	SC_19	cnc	2	d	173	81	610.489	d	d	word	multi	22151	SC	5	3	5	3.471	618	294	1.676	5	gusto	11.059	1.266	426	5	740	3.953	9	954	13	1	6.412	3.389	6.611	1	502.2902494
498	acido	EB_8	cnc	1	d	171	81	763.6021	d	d	word	multi	22151	EB	5	3	5	3.471	618	294	1.676	5	gusto	11.059	1.266	426	5	740	3.953	9	954	13	1	6.412	3.389	6.611	1	502.2902494
499	acido	SC_15	cnc	2	d	132	81	572.3798	d	d	word	multi	22151	SC	5	3	5	3.471	618	294	1.676	5	gusto	11.059	1.266	426	5	740	3.953	9	954	13	1	6.412	3.389	6.611	1	502.2902494
500	acido	SC_15	cnc	1	d	162	81	533.25	d	d	word	multi	22151	SC	5	3	5	3.471	618	294	1.676	5	gusto	11.059	1.266	426	5	740	3.953	9	954	13	1	6.412	3.389	6.611	1	502.2902494
501	acido	EB_14	cnc	1	d	168	81	962.8543	d	d	word	multi	22151	EB	5	3	5	3.471	618	294	1.676	5	gusto	11.059	1.266	426	5	740	3.953	9	954	13	1	6.412	3.389	6.611	1	502.2902494
502	acido	SC_21	cnc	2	s	1	81	795.7441	s	s	word	multi	22151	SC	5	3	5	3.471	618	294	1.676	5	gusto	11.059	1.266	426	5	740	3.953	9	954	13	1	6.412	3.389	6.611	1	502.2902494
503	acido	EB_15	cnc	1	d	229	81	798.2999	d	d	word	multi	22151	EB	5	3	5	3.471	618	294	1.676	5	gusto	11.059	1.266	426	5	740	3.953	9	954	13	1	6.412	3.389	6.611	1	502.2902494
504	acido	EB_19	cnc	1	d	185	81	720	d	d	word	multi	22151	EB	5	3	5	3.471	618	294	1.676	5	gusto	11.059	1.266	426	5	740	3.953	9	954	13	1	6.412	3.389	6.611	1	502.2902494
505	acoranto	SC_12	cnc	1	d	253	123	982	s	s	nword	pseudow	29043	SC	0	0	0	0	0	0	0	0	xxx	0	0	0	0	0	0	0	0	0	0	0	0	0	1	658.5714286
506	acoranto	EB_7	cnc	1	d	236	123	1594.334	s	s	nword	pseudow	29043	EB	0	0	0	0	0	0	0	0	xxx	0	0	0	0	0	0	0	0	0	0	0	0	0	1	658.5714286
507	acoranto	EB_16	cnc	2	d	55	123	766.9831	s	s	nword	pseudow	29043	EB	0	0	0	0	0	0	0	0	xxx	0	0	0	0	0	0	0	0	0	0	0	0	0	1	658.5714286
508	acoranto	SC_2	cnc	2	d	48	123	848.6962	s	s	nword	pseudow	29043	SC	0	0	0	0	0	0	0	0	xxx	0	0	0	0	0	0	0	0	0	0	0	0	0	1	658.5714286
509	acoranto	SC_21	cnc	1	s	238	123	965.9472	d	d	nword	pseudow	29043	SC	0	0	0	0	0	0	0	0	xxx	0	0	0	0	0	0	0	0	0	0	0	0	0	1	658.5714286
510	acoranto	EB_10	cnc	2	s	112	123	846.3468	d	d	nword	pseudow	29043	EB	0	0	0	0	0	0	0	0	xxx	0	0	0	0	0	0	0	0	0	0	0	0	0	1	658.5714286
511	acoranto	EB_6	cnc	2	d	79	123	1173.045	s	s	nword	pseudow	29043	EB	0	0	0	0	0	0	0	0	xxx	0	0	0	0	0	0	0	0	0	0	0	0	0	1	658.5714286
512	acoranto	SC_15	cnc	1	d	87	123	1044.197	s	s	nword	pseudow	29043	SC	0	0	0	0	0	0	0	0	xxx	0	0	0	0	0	0	0	0	0	0	0	0	0	1	658.5714286
513	acoranto	SC_10	cnc	1	d	85	123	992.3765	s	s	nword	pseudow	29043	SC	0	0	0	0	0	0	0	0	xxx	0	0	0	0	0	0	0	0	0	0	0	0	0	1	658.5714286
514	acoranto	SC_19	cnc	1	d	109	123	889.0439	s	s	nword	pseudow	29043	SC	0	0	0	0	0	0	0	0	xxx	0	0	0	0	0	0	0	0	0	0	0	0	0	1	658.5714286
515	acoranto	EB_5	cnc	1	d	224	123	878.3043	s	s	nword	pseudow	29043	EB	0	0	0	0	0	0	0	0	xxx	0	0	0	0	0	0	0	0	0	0	0	0	0	1	658.5714286
516	acoranto	EB_12	cnc	1	d	223	123	820.9593	d	s	nword	pseudow	29043	EB	0	0	0	0	0	0	0	0	xxx	0	0	0	0	0	0	0	0	0	0	0	0	0	0	658.5714286
517	acoranto	SC_9	cnc	1	d	63	123	877.9016	s	s	nword	pseudow	29043	SC	0	0	0	0	0	0	0	0	xxx	0	0	0	0	0	0	0	0	0	0	0	0	0	1	658.5714286
518	acoranto	SC_22	cnc	2	d	20	123	907.0108	s	s	nword	pseudow	29043	SC	0	0	0	0	0	0	0	0	xxx	0	0	0	0	0	0	0	0	0	0	0	0	0	1	658.5714286
519	acoranto	EB_8	cnc	1	d	124	123	1200.294	s	s	nword	pseudow	29043	EB	0	0	0	0	0	0	0	0	xxx	0	0	0	0	0	0	0	0	0	0	0	0	0	1	658.5714286
520	acoranto	SC_12	cnc	2	d	144	123	899.4441	s	s	nword	pseudow	29043	SC	0	0	0	0	0	0	0	0	xxx	0	0	0	0	0	0	0	0	0	0	0	0	0	1	658.5714286
521	acoranto	EB_2	cnc	2	d	223	123	925.8398	s	s	nword	pseudow	29043	EB	0	0	0	0	0	0	0	0	xxx	0	0	0	0	0	0	0	0	0	0	0	0	0	1	658.5714286
522	acoranto	EB_18	cnc	1	d	154	123	1330.091	s	s	nword	pseudow	29043	EB	0	0	0	0	0	0	0	0	xxx	0	0	0	0	0	0	0	0	0	0	0	0	0	1	658.5714286
523	acoranto	EB_12	cnc	2	d	39	123	751.0642	d	s	nword	pseudow	29043	EB	0	0	0	0	0	0	0	0	xxx	0	0	0	0	0	0	0	0	0	0	0	0	0	0	658.5714286
524	acoranto	SC_13	cnc	1	d	51	123	910.3436	s	s	nword	pseudow	29043	SC	0	0	0	0	0	0	0	0	xxx	0	0	0	0	0	0	0	0	0	0	0	0	0	1	658.5714286
525	acoranto	EB_15	cnc	2	d	127	123	1760	s	s	nword	pseudow	29043	EB	0	0	0	0	0	0	0	0	xxx	0	0	0	0	0	0	0	0	0	0	0	0	0	1	658.5714286
526	acoranto	SC_22	cnc	1	d	208	123	1192.279	s	s	nword	pseudow	29043	SC	0	0	0	0	0	0	0	0	xxx	0	0	0	0	0	0	0	0	0	0	0	0	0	1	658.5714286
527	acoranto	EB_17	cnc	1	d	257	123	1021.454	s	s	nword	pseudow	29043	EB	0	0	0	0	0	0	0	0	xxx	0	0	0	0	0	0	0	0	0	0	0	0	0	1	658.5714286
528	acoranto	SC_6	cnc	2	d	33	123	929.7342	s	s	nword	pseudow	29043	SC	0	0	0	0	0	0	0	0	xxx	0	0	0	0	0	0	0	0	0	0	0	0	0	1	658.5714286
529	acoranto	EB_11	cnc	2	d	157	123	1181.522	s	s	nword	pseudow	29043	EB	0	0	0	0	0	0	0	0	xxx	0	0	0	0	0	0	0	0	0	0	0	0	0	1	658.5714286
530	acoranto	EB_19	cnc	1	d	128	123	780	s	s	nword	pseudow	29043	EB	0	0	0	0	0	0	0	0	xxx	0	0	0	0	0	0	0	0	0	0	0	0	0	1	658.5714286
531	acoranto	EB_10	cnc	1	s	226	123	1663.364	d	d	nword	pseudow	29043	EB	0	0	0	0	0	0	0	0	xxx	0	0	0	0	0	0	0	0	0	0	0	0	0	1	658.5714286
532	acoranto	SC_21	cnc	2	s	47	123	994.7169	d	d	nword	pseudow	29043	SC	0	0	0	0	0	0	0	0	xxx	0	0	0	0	0	0	0	0	0	0	0	0	0	1	658.5714286
533	acoranto	EB_5	cnc	2	d	150	123	944.8246	s	s	nword	pseudow	29043	EB	0	0	0	0	0	0	0	0	xxx	0	0	0	0	0	0	0	0	0	0	0	0	0	1	658.5714286
534	acoranto	SC_20	cnc	1	d	102	123	867.5601	s	s	nword	pseudow	29043	SC	0	0	0	0	0	0	0	0	xxx	0	0	0	0	0	0	0	0	0	0	0	0	0	1	658.5714286
535	acoranto	EB_2	cnc	1	d	248	123	970.3301	s	s	nword	pseudow	29043	EB	0	0	0	0	0	0	0	0	xxx	0	0	0	0	0	0	0	0	0	0	0	0	0	1	658.5714286
536	acoranto	EB_7	cnc	2	d	160	123	1525.233	s	s	nword	pseudow	29043	EB	0	0	0	0	0	0	0	0	xxx	0	0	0	0	0	0	0	0	0	0	0	0	0	1	658.5714286
537	acoranto	SC_4	cnc	2	d	2	123	613.0009	s	s	nword	pseudow	29043	SC	0	0	0	0	0	0	0	0	xxx	0	0	0	0	0	0	0	0	0	0	0	0	0	1	658.5714286
538	acoranto	EB_17	cnc	2	d	185	123	781.7881	s	s	nword	pseudow	29043	EB	0	0	0	0	0	0	0	0	xxx	0	0	0	0	0	0	0	0	0	0	0	0	0	1	658.5714286
539	acoranto	SC_9	cnc	2	d	40	123	879.9152	s	s	nword	pseudow	29043	SC	0	0	0	0	0	0	0	0	xxx	0	0	0	0	0	0	0	0	0	0	0	0	0	1	658.5714286
540	acoranto	EB_3	cnc	2	d	195	123	796.5232	s	s	nword	pseudow	29043	EB	0	0	0	0	0	0	0	0	xxx	0	0	0	0	0	0	0	0	0	0	0	0	0	1	658.5714286
541	acoranto	SC_1	cnc	2	d	68	123	426	d	s	nword	pseudow	29043	SC	0	0	0	0	0	0	0	0	xxx	0	0	0	0	0	0	0	0	0	0	0	0	0	0	658.5714286
542	acoranto	EB_4	cnc	1	d	136	123	1231.859	s	s	nword	pseudow	29043	EB	0	0	0	0	0	0	0	0	xxx	0	0	0	0	0	0	0	0	0	0	0	0	0	1	658.5714286
543	acoranto	SC_19	cnc	2	d	34	123	765.6915	s	s	nword	pseudow	29043	SC	0	0	0	0	0	0	0	0	xxx	0	0	0	0	0	0	0	0	0	0	0	0	0	1	658.5714286
544	acoranto	EB_4	cnc	2	d	115	123	936.0879	s	s	nword	pseudow	29043	EB	0	0	0	0	0	0	0	0	xxx	0	0	0	0	0	0	0	0	0	0	0	0	0	1	658.5714286
545	acoranto	EB_14	cnc	1	d	270	123	1335.397	s	s	nword	pseudow	29043	EB	0	0	0	0	0	0	0	0	xxx	0	0	0	0	0	0	0	0	0	0	0	0	0	1	658.5714286
546	acoranto	SC_4	cnc	1	d	122	123	954.0454	s	s	nword	pseudow	29043	SC	0	0	0	0	0	0	0	0	xxx	0	0	0	0	0	0	0	0	0	0	0	0	0	1	658.5714286
547	acoranto	SC_13	cnc	2	d	33	123	1200.809	s	s	nword	pseudow	29043	SC	0	0	0	0	0	0	0	0	xxx	0	0	0	0	0	0	0	0	0	0	0	0	0	1	658.5714286
548	acoranto	SC_3	cnc	1	s	218	123	966.3324	d	d	nword	pseudow	29043	SC	0	0	0	0	0	0	0	0	xxx	0	0	0	0	0	0	0	0	0	0	0	0	0	1	658.5714286
549	acoranto	EB_6	cnc	1	d	118	123	982.992	s	s	nword	pseudow	29043	EB	0	0	0	0	0	0	0	0	xxx	0	0	0	0	0	0	0	0	0	0	0	0	0	1	658.5714286
550	acoranto	EB_3	cnc	1	d	202	123	843.7285	s	s	nword	pseudow	29043	EB	0	0	0	0	0	0	0	0	xxx	0	0	0	0	0	0	0	0	0	0	0	0	0	1	658.5714286
551	acoranto	SC_7	cnc	1	d	220	123	1420	s	s	nword	pseudow	29043	SC	0	0	0	0	0	0	0	0	xxx	0	0	0	0	0	0	0	0	0	0	0	0	0	1	658.5714286
552	acoranto	SC_14	cnc	2	d	151	123	879.0394	s	s	nword	pseudow	29043	SC	0	0	0	0	0	0	0	0	xxx	0	0	0	0	0	0	0	0	0	0	0	0	0	1	658.5714286
553	acoranto	EB_20	cnc	2	d	74	123	1438.048	s	s	nword	pseudow	29043	EB	0	0	0	0	0	0	0	0	xxx	0	0	0	0	0	0	0	0	0	0	0	0	0	1	658.5714286
554	acoranto	EB_11	cnc	1	d	214	123	871.951	s	s	nword	pseudow	29043	EB	0	0	0	0	0	0	0	0	xxx	0	0	0	0	0	0	0	0	0	0	0	0	0	1	658.5714286
555	acoranto	SC_8	cnc	1	d	36	123	1050	s	s	nword	pseudow	29043	SC	0	0	0	0	0	0	0	0	xxx	0	0	0	0	0	0	0	0	0	0	0	0	0	1	658.5714286
556	acoranto	SC_18	cnc	2	d	105	123	764.8068	s	s	nword	pseudow	29043	SC	0	0	0	0	0	0	0	0	xxx	0	0	0	0	0	0	0	0	0	0	0	0	0	1	658.5714286
557	acoranto	SC_18	cnc	1	d	184	123	832.3117	s	s	nword	pseudow	29043	SC	0	0	0	0	0	0	0	0	xxx	0	0	0	0	0	0	0	0	0	0	0	0	0	1	658.5714286
558	acoranto	SC_1	cnc	1	d	36	123	934.1091	s	s	nword	pseudow	29043	SC	0	0	0	0	0	0	0	0	xxx	0	0	0	0	0	0	0	0	0	0	0	0	0	1	658.5714286
559	acoranto	SC_5	cnc	1	d	182	123	1038.853	s	s	nword	pseudow	29043	SC	0	0	0	0	0	0	0	0	xxx	0	0	0	0	0	0	0	0	0	0	0	0	0	1	658.5714286
560	acoranto	SC_3	cnc	2	s	186	123	876.0605	d	d	nword	pseudow	29043	SC	0	0	0	0	0	0	0	0	xxx	0	0	0	0	0	0	0	0	0	0	0	0	0	1	658.5714286
561	acoranto	SC_17	cnc	1	d	67	123	1012.261	s	s	nword	pseudow	29043	SC	0	0	0	0	0	0	0	0	xxx	0	0	0	0	0	0	0	0	0	0	0	0	0	1	658.5714286
562	acoranto	EB_8	cnc	2	d	233	123	1054.815	s	s	nword	pseudow	29043	EB	0	0	0	0	0	0	0	0	xxx	0	0	0	0	0	0	0	0	0	0	0	0	0	1	658.5714286
563	acoranto	EB_19	cnc	2	d	168	123	878	s	s	nword	pseudow	29043	EB	0	0	0	0	0	0	0	0	xxx	0	0	0	0	0	0	0	0	0	0	0	0	0	1	658.5714286
564	acoranto	EB_1	cnc	2	d	128	123	1064.803	s	s	nword	pseudow	29043	EB	0	0	0	0	0	0	0	0	xxx	0	0	0	0	0	0	0	0	0	0	0	0	0	1	658.5714286
565	acoranto	SC_20	cnc	2	d	58	123	986.413	s	s	nword	pseudow	29043	SC	0	0	0	0	0	0	0	0	xxx	0	0	0	0	0	0	0	0	0	0	0	0	0	1	658.5714286
566	acoranto	SC_2	cnc	1	d	97	123	1032.679	s	s	nword	pseudow	29043	SC	0	0	0	0	0	0	0	0	xxx	0	0	0	0	0	0	0	0	0	0	0	0	0	1	658.5714286
567	acoranto	SC_5	cnc	2	d	83	123	990.8092	s	s	nword	pseudow	29043	SC	0	0	0	0	0	0	0	0	xxx	0	0	0	0	0	0	0	0	0	0	0	0	0	1	658.5714286
568	acoranto	SC_16	cnc	1	d	48	123	1320.923	s	s	nword	pseudow	29043	SC	0	0	0	0	0	0	0	0	xxx	0	0	0	0	0	0	0	0	0	0	0	0	0	1	658.5714286
569	acoranto	EB_18	cnc	2	d	38	123	1160	s	s	nword	pseudow	29043	EB	0	0	0	0	0	0	0	0	xxx	0	0	0	0	0	0	0	0	0	0	0	0	0	1	658.5714286
570	acoranto	SC_7	cnc	2	d	139	123	1390	s	s	nword	pseudow	29043	SC	0	0	0	0	0	0	0	0	xxx	0	0	0	0	0	0	0	0	0	0	0	0	0	1	658.5714286
571	acoranto	EB_1	cnc	1	d	204	123	1003.041	s	s	nword	pseudow	29043	EB	0	0	0	0	0	0	0	0	xxx	0	0	0	0	0	0	0	0	0	0	0	0	0	1	658.5714286
572	acoranto	EB_9	cnc	2	d	232	123	985.4709	s	s	nword	pseudow	29043	EB	0	0	0	0	0	0	0	0	xxx	0	0	0	0	0	0	0	0	0	0	0	0	0	1	658.5714286
573	acoranto	SC_17	cnc	2	d	90	123	1081.812	s	s	nword	pseudow	29043	SC	0	0	0	0	0	0	0	0	xxx	0	0	0	0	0	0	0	0	0	0	0	0	0	1	658.5714286
574	acoranto	EB_21	cnc	1	d	71	123	936.3209	s	s	nword	pseudow	29043	EB	0	0	0	0	0	0	0	0	xxx	0	0	0	0	0	0	0	0	0	0	0	0	0	1	658.5714286
575	acoranto	EB_14	cnc	2	d	109	123	1226.37	s	s	nword	pseudow	29043	EB	0	0	0	0	0	0	0	0	xxx	0	0	0	0	0	0	0	0	0	0	0	0	0	1	658.5714286
576	acoranto	SC_6	cnc	1	d	242	123	1329.975	s	s	nword	pseudow	29043	SC	0	0	0	0	0	0	0	0	xxx	0	0	0	0	0	0	0	0	0	0	0	0	0	1	658.5714286
577	acoranto	SC_8	cnc	2	d	45	123	1160	s	s	nword	pseudow	29043	SC	0	0	0	0	0	0	0	0	xxx	0	0	0	0	0	0	0	0	0	0	0	0	0	1	658.5714286
578	acoranto	EB_13	cnc	1	d	139	123	1053.73	s	s	nword	pseudow	29043	EB	0	0	0	0	0	0	0	0	xxx	0	0	0	0	0	0	0	0	0	0	0	0	0	1	658.5714286
579	acoranto	EB_20	cnc	1	d	112	123	1289.486	s	s	nword	pseudow	29043	EB	0	0	0	0	0	0	0	0	xxx	0	0	0	0	0	0	0	0	0	0	0	0	0	1	658.5714286
580	acoranto	EB_21	cnc	2	d	209	123	1007.097	s	s	nword	pseudow	29043	EB	0	0	0	0	0	0	0	0	xxx	0	0	0	0	0	0	0	0	0	0	0	0	0	1	658.5714286
581	acoranto	SC_16	cnc	2	d	127	123	968.1508	s	s	nword	pseudow	29043	SC	0	0	0	0	0	0	0	0	xxx	0	0	0	0	0	0	0	0	0	0	0	0	0	1	658.5714286
582	acoranto	SC_10	cnc	2	d	76	123	1074.626	s	s	nword	pseudow	29043	SC	0	0	0	0	0	0	0	0	xxx	0	0	0	0	0	0	0	0	0	0	0	0	0	1	658.5714286
583	acoranto	SC_14	cnc	1	d	270	123	1011.001	s	s	nword	pseudow	29043	SC	0	0	0	0	0	0	0	0	xxx	0	0	0	0	0	0	0	0	0	0	0	0	0	1	658.5714286
584	acoranto	EB_15	cnc	1	d	51	123	1136.843	s	s	nword	pseudow	29043	EB	0	0	0	0	0	0	0	0	xxx	0	0	0	0	0	0	0	0	0	0	0	0	0	1	658.5714286
585	acoranto	EB_13	cnc	2	d	183	123	1012.318	s	s	nword	pseudow	29043	EB	0	0	0	0	0	0	0	0	xxx	0	0	0	0	0	0	0	0	0	0	0	0	0	1	658.5714286
586	acoranto	EB_9	cnc	1	d	174	123	1501.05	d	s	nword	pseudow	29043	EB	0	0	0	0	0	0	0	0	xxx	0	0	0	0	0	0	0	0	0	0	0	0	0	0	658.5714286
587	acoranto	EB_16	cnc	1	d	134	123	752.611	s	s	nword	pseudow	29043	EB	0	0	0	0	0	0	0	0	xxx	0	0	0	0	0	0	0	0	0	0	0	0	0	1	658.5714286
588	acoranto	SC_15	cnc	2	d	5	123	988.081	s	s	nword	pseudow	29043	SC	0	0	0	0	0	0	0	0	xxx	0	0	0	0	0	0	0	0	0	0	0	0	0	1	658.5714286
589	affegliante	SC_17	cnc	1	d	209	124	915.6656	s	s	nword	pseudow	32323	SC	0	0	0	0	0	0	0	0	xxx	0	0	0	0	0	0	0	0	0	0	0	0	0	1	732.9478458
590	affegliante	EB_19	cnc	1	d	207	124	1100	d	s	nword	pseudow	32323	EB	0	0	0	0	0	0	0	0	xxx	0	0	0	0	0	0	0	0	0	0	0	0	0	0	732.9478458
591	affegliante	EB_13	cnc	1	d	43	124	791.9145	s	s	nword	pseudow	32323	EB	0	0	0	0	0	0	0	0	xxx	0	0	0	0	0	0	0	0	0	0	0	0	0	1	732.9478458
592	affegliante	SC_16	cnc	2	d	161	124	1249.75	s	s	nword	pseudow	32323	SC	0	0	0	0	0	0	0	0	xxx	0	0	0	0	0	0	0	0	0	0	0	0	0	1	732.9478458
593	affegliante	SC_5	cnc	1	d	175	124	932.6147	s	s	nword	pseudow	32323	SC	0	0	0	0	0	0	0	0	xxx	0	0	0	0	0	0	0	0	0	0	0	0	0	1	732.9478458
594	affegliante	SC_9	cnc	1	d	94	124	1189.397	s	s	nword	pseudow	32323	SC	0	0	0	0	0	0	0	0	xxx	0	0	0	0	0	0	0	0	0	0	0	0	0	1	732.9478458
595	affegliante	EB_21	cnc	1	d	216	124	1025.795	s	s	nword	pseudow	32323	EB	0	0	0	0	0	0	0	0	xxx	0	0	0	0	0	0	0	0	0	0	0	0	0	1	732.9478458
596	affegliante	EB_11	cnc	1	d	197	124	2003.177	s	s	nword	pseudow	32323	EB	0	0	0	0	0	0	0	0	xxx	0	0	0	0	0	0	0	0	0	0	0	0	0	1	732.9478458
597	affegliante	EB_5	cnc	1	d	39	124	880.9899	s	s	nword	pseudow	32323	EB	0	0	0	0	0	0	0	0	xxx	0	0	0	0	0	0	0	0	0	0	0	0	0	1	732.9478458
598	affegliante	EB_1	cnc	1	d	143	124	1637.667	s	s	nword	pseudow	32323	EB	0	0	0	0	0	0	0	0	xxx	0	0	0	0	0	0	0	0	0	0	0	0	0	1	732.9478458
599	affegliante	SC_10	cnc	1	d	54	124	2145.789	d	s	nword	pseudow	32323	SC	0	0	0	0	0	0	0	0	xxx	0	0	0	0	0	0	0	0	0	0	0	0	0	0	732.9478458
600	affegliante	EB_14	cnc	1	d	91	124	1062.358	s	s	nword	pseudow	32323	EB	0	0	0	0	0	0	0	0	xxx	0	0	0	0	0	0	0	0	0	0	0	0	0	1	732.9478458
601	affegliante	SC_13	cnc	2	d	211	124	772.6784	s	s	nword	pseudow	32323	SC	0	0	0	0	0	0	0	0	xxx	0	0	0	0	0	0	0	0	0	0	0	0	0	1	732.9478458
602	affegliante	SC_20	cnc	2	d	174	124	866.7674	s	s	nword	pseudow	32323	SC	0	0	0	0	0	0	0	0	xxx	0	0	0	0	0	0	0	0	0	0	0	0	0	1	732.9478458
603	affegliante	SC_14	cnc	2	d	182	124	722.6293	s	s	nword	pseudow	32323	SC	0	0	0	0	0	0	0	0	xxx	0	0	0	0	0	0	0	0	0	0	0	0	0	1	732.9478458
604	affegliante	SC_2	cnc	2	d	94	124	877.1829	s	s	nword	pseudow	32323	SC	0	0	0	0	0	0	0	0	xxx	0	0	0	0	0	0	0	0	0	0	0	0	0	1	732.9478458
605	affegliante	SC_18	cnc	2	d	156	124	827.2056	s	s	nword	pseudow	32323	SC	0	0	0	0	0	0	0	0	xxx	0	0	0	0	0	0	0	0	0	0	0	0	0	1	732.9478458
606	affegliante	SC_7	cnc	1	d	219	124	1320	s	s	nword	pseudow	32323	SC	0	0	0	0	0	0	0	0	xxx	0	0	0	0	0	0	0	0	0	0	0	0	0	1	732.9478458
607	affegliante	EB_4	cnc	1	d	114	124	863.6749	s	s	nword	pseudow	32323	EB	0	0	0	0	0	0	0	0	xxx	0	0	0	0	0	0	0	0	0	0	0	0	0	1	732.9478458
608	affegliante	SC_19	cnc	2	d	98	124	794.6596	s	s	nword	pseudow	32323	SC	0	0	0	0	0	0	0	0	xxx	0	0	0	0	0	0	0	0	0	0	0	0	0	1	732.9478458
609	affegliante	EB_1	cnc	2	d	115	124	1324.607	d	s	nword	pseudow	32323	EB	0	0	0	0	0	0	0	0	xxx	0	0	0	0	0	0	0	0	0	0	0	0	0	0	732.9478458
610	affegliante	EB_8	cnc	1	d	205	124	762.1212	s	s	nword	pseudow	32323	EB	0	0	0	0	0	0	0	0	xxx	0	0	0	0	0	0	0	0	0	0	0	0	0	1	732.9478458
611	affegliante	EB_14	cnc	2	d	153	124	975.9364	s	s	nword	pseudow	32323	EB	0	0	0	0	0	0	0	0	xxx	0	0	0	0	0	0	0	0	0	0	0	0	0	1	732.9478458
612	affegliante	SC_15	cnc	1	d	113	124	873.0298	s	s	nword	pseudow	32323	SC	0	0	0	0	0	0	0	0	xxx	0	0	0	0	0	0	0	0	0	0	0	0	0	1	732.9478458
613	affegliante	EB_6	cnc	1	d	217	124	1618.705	s	s	nword	pseudow	32323	EB	0	0	0	0	0	0	0	0	xxx	0	0	0	0	0	0	0	0	0	0	0	0	0	1	732.9478458
614	affegliante	EB_13	cnc	2	d	171	124	869.7825	s	s	nword	pseudow	32323	EB	0	0	0	0	0	0	0	0	xxx	0	0	0	0	0	0	0	0	0	0	0	0	0	1	732.9478458
615	affegliante	SC_4	cnc	1	d	253	124	655.8009	s	s	nword	pseudow	32323	SC	0	0	0	0	0	0	0	0	xxx	0	0	0	0	0	0	0	0	0	0	0	0	0	1	732.9478458
616	affegliante	EB_16	cnc	2	d	162	124	837.7661	s	s	nword	pseudow	32323	EB	0	0	0	0	0	0	0	0	xxx	0	0	0	0	0	0	0	0	0	0	0	0	0	1	732.9478458
617	affegliante	EB_6	cnc	2	d	66	124	1262.962	s	s	nword	pseudow	32323	EB	0	0	0	0	0	0	0	0	xxx	0	0	0	0	0	0	0	0	0	0	0	0	0	1	732.9478458
618	affegliante	EB_9	cnc	1	d	196	124	804.2561	s	s	nword	pseudow	32323	EB	0	0	0	0	0	0	0	0	xxx	0	0	0	0	0	0	0	0	0	0	0	0	0	1	732.9478458
619	affegliante	EB_8	cnc	2	d	39	124	843.3772	s	s	nword	pseudow	32323	EB	0	0	0	0	0	0	0	0	xxx	0	0	0	0	0	0	0	0	0	0	0	0	0	1	732.9478458
620	affegliante	SC_6	cnc	2	d	145	124	1355.016	s	s	nword	pseudow	32323	SC	0	0	0	0	0	0	0	0	xxx	0	0	0	0	0	0	0	0	0	0	0	0	0	1	732.9478458
621	affegliante	EB_11	cnc	2	d	232	124	1697.002	d	s	nword	pseudow	32323	EB	0	0	0	0	0	0	0	0	xxx	0	0	0	0	0	0	0	0	0	0	0	0	0	0	732.9478458
622	affegliante	SC_4	cnc	2	d	59	124	599.9804	s	s	nword	pseudow	32323	SC	0	0	0	0	0	0	0	0	xxx	0	0	0	0	0	0	0	0	0	0	0	0	0	1	732.9478458
623	affegliante	SC_1	cnc	2	d	170	124	1110	d	s	nword	pseudow	32323	SC	0	0	0	0	0	0	0	0	xxx	0	0	0	0	0	0	0	0	0	0	0	0	0	0	732.9478458
624	affegliante	EB_10	cnc	2	s	8	124	939.5739	d	d	nword	pseudow	32323	EB	0	0	0	0	0	0	0	0	xxx	0	0	0	0	0	0	0	0	0	0	0	0	0	1	732.9478458
625	affegliante	EB_2	cnc	1	d	86	124	903.5936	s	s	nword	pseudow	32323	EB	0	0	0	0	0	0	0	0	xxx	0	0	0	0	0	0	0	0	0	0	0	0	0	1	732.9478458
626	affegliante	SC_9	cnc	2	d	100	124	1187.193	s	s	nword	pseudow	32323	SC	0	0	0	0	0	0	0	0	xxx	0	0	0	0	0	0	0	0	0	0	0	0	0	1	732.9478458
627	affegliante	EB_16	cnc	1	d	114	124	939.7582	s	s	nword	pseudow	32323	EB	0	0	0	0	0	0	0	0	xxx	0	0	0	0	0	0	0	0	0	0	0	0	0	1	732.9478458
628	affegliante	EB_17	cnc	2	d	223	124	792.09	s	s	nword	pseudow	32323	EB	0	0	0	0	0	0	0	0	xxx	0	0	0	0	0	0	0	0	0	0	0	0	0	1	732.9478458
629	affegliante	SC_18	cnc	1	d	178	124	846.7843	s	s	nword	pseudow	32323	SC	0	0	0	0	0	0	0	0	xxx	0	0	0	0	0	0	0	0	0	0	0	0	0	1	732.9478458
630	affegliante	SC_5	cnc	2	d	46	124	804.9716	s	s	nword	pseudow	32323	SC	0	0	0	0	0	0	0	0	xxx	0	0	0	0	0	0	0	0	0	0	0	0	0	1	732.9478458
631	affegliante	EB_7	cnc	2	d	92	124	1532.837	s	s	nword	pseudow	32323	EB	0	0	0	0	0	0	0	0	xxx	0	0	0	0	0	0	0	0	0	0	0	0	0	1	732.9478458
632	affegliante	SC_20	cnc	1	d	93	124	1028.717	s	s	nword	pseudow	32323	SC	0	0	0	0	0	0	0	0	xxx	0	0	0	0	0	0	0	0	0	0	0	0	0	1	732.9478458
633	affegliante	EB_10	cnc	1	s	152	124	770.6644	d	d	nword	pseudow	32323	EB	0	0	0	0	0	0	0	0	xxx	0	0	0	0	0	0	0	0	0	0	0	0	0	1	732.9478458
634	affegliante	SC_10	cnc	2	d	232	124	2547.805	d	s	nword	pseudow	32323	SC	0	0	0	0	0	0	0	0	xxx	0	0	0	0	0	0	0	0	0	0	0	0	0	0	732.9478458
635	affegliante	EB_12	cnc	2	d	201	124	847.1775	s	s	nword	pseudow	32323	EB	0	0	0	0	0	0	0	0	xxx	0	0	0	0	0	0	0	0	0	0	0	0	0	1	732.9478458
636	affegliante	SC_7	cnc	2	d	18	124	1410	d	s	nword	pseudow	32323	SC	0	0	0	0	0	0	0	0	xxx	0	0	0	0	0	0	0	0	0	0	0	0	0	0	732.9478458
637	affegliante	SC_2	cnc	1	d	138	124	882.344	s	s	nword	pseudow	32323	SC	0	0	0	0	0	0	0	0	xxx	0	0	0	0	0	0	0	0	0	0	0	0	0	1	732.9478458
638	affegliante	SC_12	cnc	2	d	100	124	1218.735	s	s	nword	pseudow	32323	SC	0	0	0	0	0	0	0	0	xxx	0	0	0	0	0	0	0	0	0	0	0	0	0	1	732.9478458
639	affegliante	EB_5	cnc	2	d	33	124	825.48	s	s	nword	pseudow	32323	EB	0	0	0	0	0	0	0	0	xxx	0	0	0	0	0	0	0	0	0	0	0	0	0	1	732.9478458
640	affegliante	SC_12	cnc	1	d	73	124	703	s	s	nword	pseudow	32323	SC	0	0	0	0	0	0	0	0	xxx	0	0	0	0	0	0	0	0	0	0	0	0	0	1	732.9478458
641	affegliante	EB_20	cnc	2	d	140	124	926.6203	s	s	nword	pseudow	32323	EB	0	0	0	0	0	0	0	0	xxx	0	0	0	0	0	0	0	0	0	0	0	0	0	1	732.9478458
642	affegliante	SC_17	cnc	2	d	57	124	1053.429	s	s	nword	pseudow	32323	SC	0	0	0	0	0	0	0	0	xxx	0	0	0	0	0	0	0	0	0	0	0	0	0	1	732.9478458
643	affegliante	SC_1	cnc	1	d	244	124	996.2814	s	s	nword	pseudow	32323	SC	0	0	0	0	0	0	0	0	xxx	0	0	0	0	0	0	0	0	0	0	0	0	0	1	732.9478458
644	affegliante	EB_19	cnc	2	d	126	124	951	s	s	nword	pseudow	32323	EB	0	0	0	0	0	0	0	0	xxx	0	0	0	0	0	0	0	0	0	0	0	0	0	1	732.9478458
645	affegliante	EB_18	cnc	2	d	10	124	1020	s	s	nword	pseudow	32323	EB	0	0	0	0	0	0	0	0	xxx	0	0	0	0	0	0	0	0	0	0	0	0	0	1	732.9478458
646	affegliante	EB_15	cnc	1	d	82	124	1882.133	s	s	nword	pseudow	32323	EB	0	0	0	0	0	0	0	0	xxx	0	0	0	0	0	0	0	0	0	0	0	0	0	1	732.9478458
647	affegliante	EB_18	cnc	1	d	270	124	1294.598	s	s	nword	pseudow	32323	EB	0	0	0	0	0	0	0	0	xxx	0	0	0	0	0	0	0	0	0	0	0	0	0	1	732.9478458
648	affegliante	SC_13	cnc	1	d	265	124	928.4729	s	s	nword	pseudow	32323	SC	0	0	0	0	0	0	0	0	xxx	0	0	0	0	0	0	0	0	0	0	0	0	0	1	732.9478458
649	affegliante	EB_15	cnc	2	d	145	124	2080	s	s	nword	pseudow	32323	EB	0	0	0	0	0	0	0	0	xxx	0	0	0	0	0	0	0	0	0	0	0	0	0	1	732.9478458
650	affegliante	SC_21	cnc	1	s	144	124	973.0909	d	d	nword	pseudow	32323	SC	0	0	0	0	0	0	0	0	xxx	0	0	0	0	0	0	0	0	0	0	0	0	0	1	732.9478458
651	affegliante	EB_3	cnc	1	d	125	124	871.948	s	s	nword	pseudow	32323	EB	0	0	0	0	0	0	0	0	xxx	0	0	0	0	0	0	0	0	0	0	0	0	0	1	732.9478458
652	affegliante	SC_14	cnc	1	d	158	124	931.037	s	s	nword	pseudow	32323	SC	0	0	0	0	0	0	0	0	xxx	0	0	0	0	0	0	0	0	0	0	0	0	0	1	732.9478458
653	affegliante	SC_8	cnc	1	d	246	124	995	s	s	nword	pseudow	32323	SC	0	0	0	0	0	0	0	0	xxx	0	0	0	0	0	0	0	0	0	0	0	0	0	1	732.9478458
